# XDI/1.0
# Column.1: energy(ev)
# Column.2: fluorescence_emission(au)
# Element.symbol: Br
# Element.edge: K
# Mono.name: Si 2 2 0
# Mono.d_spacing: 1.92
# Beamline.name: FAME
# Sample.name: Gallium bromide solution in hydrothermal conditions: Ga3+ 0.017m, Br- 0.051m
# Sample.temperature: 370.0 +/- 0.1 K
# Sample.pressure: 300.0 +/- 0.5 bar
# Citation.doi:  https://doi.org/10.26302/SSHADE/EXPERIMENT_DT_20180710_001
# Citation.comments: Da Silva, CÃ©cile; Testemale, Denis; Hazemann, Jean-Louis; Proux, Olivier (2006): Br K edge XAS of gallium bromide solution in hydrothermal conditions at 300bars and between 300 and 650K. SSHADE/FAME (OSUG Data Center). Dataset/Spectral Data. https://doi.org/10.26302/SSHADE/EXPERIMENT_DT_20180710_001Schmitt, Bernard; Bollard, Philippe; Albert, Damien; Garenne, Alexandre; Bonal, Lydie; and the SSHADE partner's consortium (2018). SSHADE: 'Solid Spectroscopy Hosting Architecture of Databases and Expertise'. OSUG Data Center. Service/Database infrastructure. https://doi.org/10.26302/SSHADE
# ////
#---------
# energy(ev)	fluorescence_emission(au)
13304.400301	0.02310
13309.700301	0.02324
13314.700301	0.02328
13319.800301	0.02313
13324.900301	0.02313
13330.000302	0.02309
13335.000302	0.02299
13340.000302	0.02288
13345.000302	0.02310
13349.900302	0.02303
13355.000302	0.02322
13359.900302	0.02313
13364.900302	0.02323
13370.000302	0.02346
13375.000303	0.02365
13379.900303	0.02390
13384.900303	0.02410
13390.000303	0.02442
13395.000303	0.02488
13400.000303	0.02538
13404.900303	0.02580
13410.100303	0.02650
13414.900303	0.02725
13420.000304	0.02830
13424.900304	0.02974
13430.000304	0.03104
13434.900304	0.03325
13435.400304	0.03346
13435.900304	0.03373
13436.400304	0.03393
13436.900304	0.03412
13437.400304	0.03441
13437.900304	0.03478
13438.400304	0.03509
13438.900304	0.03551
13439.500304	0.03569
13440.000304	0.03607
13440.400304	0.03631
13440.900304	0.03656
13441.400304	0.03706
13441.900304	0.03742
13442.400304	0.03782
13442.900304	0.03818
13443.400304	0.03852
13444.000304	0.03909
13444.400304	0.03926
13444.900304	0.03986
13445.400304	0.04052
13445.900304	0.04072
13446.400304	0.04138
13446.900304	0.04188
13447.400304	0.04233
13447.900304	0.04284
13448.400304	0.04354
13448.900304	0.04427
13449.400304	0.04496
13449.900304	0.04552
13450.400304	0.04621
13450.900304	0.04692
13451.400304	0.04780
13451.900304	0.04874
13452.400304	0.04950
13452.900304	0.05044
13453.400304	0.05132
13453.900304	0.05238
13454.500304	0.05358
13454.900304	0.05462
13455.400304	0.05583
13455.900304	0.05704
13456.400304	0.05834
13456.900304	0.05972
13457.400304	0.06127
13457.900304	0.06283
13458.400304	0.06458
13458.900304	0.06649
13459.400304	0.06836
13459.900304	0.07087
13460.400304	0.07343
13460.900305	0.07569
13461.400305	0.07889
13461.900305	0.08195
13462.400305	0.08530
13462.900305	0.08893
13463.400305	0.09308
13463.900305	0.09725
13464.400305	0.10262
13464.900305	0.10823
13465.400305	0.11422
13465.900305	0.12217
13466.400305	0.13027
13466.900305	0.14038
13467.500305	0.15308
13467.900305	0.16463
13468.400305	0.18152
13468.900305	0.20185
13469.400305	0.22790
13469.900305	0.26088
13470.400305	0.30419
13470.900305	0.36309
13471.400305	0.44433
13471.900305	0.55164
13472.400305	0.69240
13473.000305	0.85931
13473.400305	1.05066
13473.900305	1.25007
13474.400305	1.43861
13474.900305	1.58921
13475.400305	1.70339
13475.900305	1.77459
13476.400305	1.81718
13476.900305	1.84118
13477.400305	1.85157
13477.900305	1.85147
13478.400305	1.83845
13478.900305	1.81789
13479.400305	1.78403
13479.900305	1.73865
13480.400305	1.68540
13480.900305	1.62303
13481.400305	1.56316
13481.900305	1.49967
13482.400305	1.44658
13482.900305	1.40113
13483.400305	1.36016
13483.900305	1.32936
13484.400305	1.30922
13484.900305	1.29822
13485.400305	1.29700
13485.900305	1.30194
13486.400305	1.31350
13486.900305	1.32820
13487.400305	1.34595
13487.900305	1.36792
13488.400305	1.39100
13488.900305	1.41289
13489.400305	1.43602
13489.900305	1.45682
13490.400305	1.47850
13490.900305	1.49956
13491.400305	1.51815
13491.900305	1.53550
13492.700305	1.56058
13494.500305	1.59557
13495.300305	1.60381
13496.200305	1.60930
13497.200305	1.60992
13498.100305	1.60675
13499.000305	1.59902
13500.100305	1.58940
13501.100305	1.57620
13502.100305	1.56315
13503.100305	1.55003
13504.100305	1.53529
13505.300306	1.51830
13506.400306	1.50320
13507.500306	1.48964
13508.600306	1.47773
13509.800306	1.46957
13511.000306	1.46091
13512.200306	1.45663
13513.400306	1.45402
13514.600306	1.45415
13515.900306	1.45690
13517.100306	1.45901
13518.300306	1.46330
13519.700306	1.46875
13521.100306	1.47432
13522.400306	1.47997
13523.700306	1.48402
13525.100306	1.48850
13526.500306	1.49112
13527.900306	1.49409
13529.400306	1.49515
13530.900306	1.49302
13532.300306	1.49147
13533.800306	1.48781
13535.300306	1.48445
13536.800306	1.47882
13538.300306	1.47559
13540.000306	1.46853
13541.600306	1.46249
13543.200306	1.45739
13544.800306	1.45269
13546.400306	1.44955
13548.100306	1.44721
13549.800307	1.44384
13551.400307	1.44235
13553.200307	1.44222
13554.900307	1.44213
13556.600307	1.44424
13558.400307	1.44573
13560.300307	1.44748
13562.100307	1.44861
13564.000307	1.44972
13565.800307	1.45148
13567.600307	1.45449
13569.500307	1.45461
13571.400307	1.45525
13573.400307	1.45610
13575.400307	1.45464
13577.300307	1.45457
13579.400307	1.45386
13581.300307	1.45283
13583.300307	1.45204
13585.300307	1.45033
13587.400307	1.44959
13589.600307	1.44830
13591.600307	1.44756
13593.700308	1.44736
13595.800308	1.44631
13598.100308	1.44584
13600.300308	1.44669
13602.400308	1.44603
13604.600308	1.44628
13606.800308	1.44667
13609.100308	1.44590
13611.400308	1.44553
13613.600308	1.44642
13615.900308	1.44695
13618.300308	1.44724
13620.600308	1.44583
13623.000308	1.44615
13625.300308	1.44565
13627.700308	1.44454
13630.100308	1.44364
13632.600308	1.44335
13635.000308	1.44183
13637.600309	1.44025
13640.000309	1.43944
13642.600309	1.43963
13645.000309	1.43850
13647.600309	1.43819
13650.200309	1.43648
13652.800309	1.43592
13655.400309	1.43597
13658.100309	1.43471
13660.600309	1.43467
13663.300309	1.43491
13666.000309	1.43326
13668.700309	1.43381
13671.400309	1.43277
13674.100309	1.43130
13676.900309	1.43185
13679.700309	1.43052
13682.400310	1.42873
13685.300310	1.42983
13688.200310	1.43013
13691.000310	1.43025
13693.800310	1.42959
13696.800310	1.42922
13699.600310	1.42882
13702.500310	1.42849
13705.500310	1.42912
13708.500310	1.42799
13711.500310	1.42777
13714.500310	1.42692
13717.500310	1.42668
13720.600310	1.42608
13723.600310	1.42554
13726.800311	1.42572
13729.800311	1.42547
13733.000311	1.42406
13736.100311	1.42281
13739.100311	1.42298
13742.300311	1.42242
13745.600311	1.42125
13748.800311	1.42057
13752.000311	1.42143
13755.100311	1.42111
13758.500311	1.41903
13761.800311	1.41912
13765.200311	1.41908
13768.500311	1.41781
13771.800312	1.41773
13775.200312	1.41678
13778.600312	1.41665
13781.900312	1.41522
13785.400312	1.41451
13788.700312	1.41285
13792.100312	1.41209
13795.700312	1.41185
13799.200312	1.41243
13802.700312	1.41208
13806.300312	1.41167
13809.800312	1.41057
13813.300312	1.40986
13816.900313	1.40864
13820.600313	1.40725
13824.100313	1.40773
13827.900313	1.40725
13831.500313	1.40667
13835.200313	1.40498
13838.900313	1.40528
13842.600313	1.40468
13846.400313	1.40371
13850.100313	1.40164
13853.800313	1.40030
13857.700313	1.40022
13861.500314	1.39963
13865.300314	1.39902
13869.100314	1.39835
13872.900314	1.39811
13877.000314	1.39636
13880.900314	1.39554
13884.800314	1.39456
13888.800314	1.39442
13892.600314	1.39390
13896.600314	1.39306
13900.600314	1.39142
13904.600315	1.39098
13908.800315	1.39047
13912.800315	1.38856
13916.900315	1.38812
13920.900315	1.38690
13924.900315	1.38711
13929.200315	1.38650
13933.400315	1.38531
13937.600315	1.38494
13941.800315	1.38391
13945.900315	1.38255
13950.200316	1.38091
13954.400316	1.38173
13958.700316	1.38066
13963.000316	1.38004
13967.300316	1.37886
13971.600316	1.37730
13975.900316	1.37626
13980.400316	1.37661
13984.700316	1.37562
13989.000316	1.37488
13993.500317	1.37392
13997.900317	1.37291
14002.400317	1.37230
14006.800317	1.37121
14011.500317	1.36916
14015.900317	1.36864
14020.400317	1.36723
14024.900317	1.36688
14029.500317	1.36672
14034.100317	1.36531
14038.700318	1.36462
14043.400318	1.36427
14047.900318	1.36435
14052.700318	1.36380
14057.300318	1.36317
14062.100318	1.36079
14066.800318	1.35947
14071.600318	1.35886
14076.300318	1.35845
14081.000319	1.35806
14085.900319	1.35810
14090.600319	1.35723
14095.500319	1.35658
14100.200319	1.35571
14105.200319	1.35571
14110.000319	1.35449
14115.000319	1.35289
14119.900319	1.35262
14125.000320	1.35194
14129.800320	1.35058
14134.800320	1.35041
14139.800320	1.34993
14144.900320	1.34848
14149.900320	1.34743
14154.900320	1.34666
14160.000320	1.34614
14165.000320	1.34556
14170.200321	1.34470
14175.300321	1.34353
14180.600321	1.34254
14185.700321	1.34135
14191.000321	1.34088
14196.000321	1.33975
14201.300321	1.33862
14206.500321	1.33803
14211.900321	1.33694
14217.000322	1.33589
14222.500322	1.33529
14227.700322	1.33471
14233.100322	1.33400
14238.400322	1.33335
14243.900322	1.33176
14249.200322	1.33118
14254.700322	1.33042
14260.100323	1.33012
14265.600323	1.32902
14270.900323	1.32722
14276.400323	1.32655
14282.000323	1.32610
14287.500323	1.32482
14293.100323	1.32305
14298.800323	1.32303
14304.400324	1.32177
14309.900324	1.32042
14315.500324	1.31922
14321.200324	1.31692
14326.900324	1.31466
14332.400324	1.31335
14338.200324	1.31327
14343.900324	1.31246
14349.600325	1.31143
14355.400325	1.31173
14361.300325	1.31141
14367.100325	1.30822
14372.900325	1.30780
14378.600325	1.30678
14384.600325	1.30531
14390.400326	1.30443
14396.300326	1.30268
14402.200326	1.30245
14408.100326	1.30203
14414.000326	1.30135
14420.000326	1.29844
14426.100326	1.29742
14432.000326	1.29738
14438.100327	1.29590
14444.000327	1.29599
