# XDI/1.0
# Column.1: energy(ev)
# Column.2: transmission(au)
# Element.symbol: Br
# Element.edge: K
# Mono.name: Si 2 2 0
# Mono.d_spacing: 1.92
# Beamline.name: FAME
# Sample.name: Gallium bromide solution in hydrothermal conditions: Ga3+ 0.17m, Br- 0.51m
# Sample.temperature: 300.0 +/- 0.1 K
# Sample.pressure: 300.0 +/- 0.5 bar
# Citation.doi:  https://doi.org/10.26302/SSHADE/EXPERIMENT_DT_20180710_001
# Citation.comments: Da Silva, CÃ©cile; Testemale, Denis; Hazemann, Jean-Louis; Proux, Olivier (2006): Br K edge XAS of gallium bromide solution in hydrothermal conditions at 300bars and between 300 and 650K. SSHADE/FAME (OSUG Data Center). Dataset/Spectral Data. https://doi.org/10.26302/SSHADE/EXPERIMENT_DT_20180710_001Schmitt, Bernard; Bollard, Philippe; Albert, Damien; Garenne, Alexandre; Bonal, Lydie; and the SSHADE partner's consortium (2018). SSHADE: 'Solid Spectroscopy Hosting Architecture of Databases and Expertise'. OSUG Data Center. Service/Database infrastructure. https://doi.org/10.26302/SSHADE
# ////
#---------
# energy(ev)	transmission(au)
13304.300301	0.02264
13309.700301	0.02020
13314.700301	0.01830
13319.700301	0.01552
13324.900301	0.01310
13329.900302	0.01111
13335.000302	0.00913
13340.000302	0.00675
13345.000302	0.00430
13349.900302	0.00201
13355.000302	-0.00026
13360.000302	-0.00271
13365.000302	-0.00478
13370.000302	-0.00661
13375.000303	-0.00876
13379.900303	-0.01058
13384.900303	-0.01261
13390.000303	-0.01436
13395.000303	-0.01635
13400.000303	-0.01838
13404.900303	-0.01985
13410.100303	-0.02118
13415.000303	-0.02240
13420.100304	-0.02353
13424.900304	-0.02448
13430.000304	-0.02508
13435.000304	-0.02533
13435.400304	-0.02552
13435.900304	-0.02539
13436.400304	-0.02514
13436.900304	-0.02519
13437.500304	-0.02508
13437.900304	-0.02506
13438.400304	-0.02515
13438.900304	-0.02517
13439.400304	-0.02474
13439.900304	-0.02466
13440.400304	-0.02460
13440.900304	-0.02404
13441.500304	-0.02439
13441.900304	-0.02405
13442.400304	-0.02381
13442.900304	-0.02355
13443.500304	-0.02359
13444.000304	-0.02307
13444.400304	-0.02303
13444.900304	-0.02288
13445.400304	-0.02244
13445.900304	-0.02235
13446.400304	-0.02188
13447.000304	-0.02158
13447.400304	-0.02124
13447.900304	-0.02056
13448.400304	-0.02007
13448.900304	-0.01985
13449.400304	-0.01917
13449.900304	-0.01891
13450.400304	-0.01805
13450.900304	-0.01747
13451.400304	-0.01699
13451.900304	-0.01635
13452.400304	-0.01564
13452.900304	-0.01512
13453.500304	-0.01407
13453.900304	-0.01341
13454.400304	-0.01227
13454.900304	-0.01133
13455.400304	-0.01035
13455.900304	-0.00896
13456.400304	-0.00748
13456.900304	-0.00642
13457.400304	-0.00488
13457.900304	-0.00333
13458.400304	-0.00178
13458.900304	-0.00003
13459.500304	0.00231
13459.900304	0.00432
13460.400304	0.00661
13460.900305	0.00900
13461.400305	0.01218
13462.000305	0.01535
13462.400305	0.01866
13462.900305	0.02250
13463.400305	0.02649
13463.900305	0.03087
13464.400305	0.03596
13464.900305	0.04173
13465.400305	0.04798
13465.900305	0.05563
13466.400305	0.06435
13466.900305	0.07417
13467.400305	0.08555
13467.900305	0.09923
13468.400305	0.11656
13468.900305	0.13621
13469.400305	0.16145
13469.900305	0.19323
13470.400305	0.23352
13470.900305	0.28561
13471.400305	0.35263
13471.900305	0.44030
13472.400305	0.54721
13473.000305	0.71643
13473.500305	0.93539
13473.900305	1.14823
13474.500305	1.49632
13474.900305	1.77552
13475.500305	2.10167
13475.900305	2.32116
13476.500305	2.49216
13476.900305	2.56895
13477.400305	2.61638
13478.000305	2.63711
13478.400305	2.63570
13478.900305	2.61506
13479.400305	2.57569
13479.900305	2.51373
13480.400305	2.43105
13480.900305	2.33401
13481.400305	2.22609
13481.900305	2.11862
13482.400305	2.01492
13482.900305	1.91994
13483.400305	1.83887
13483.900305	1.77048
13484.400305	1.71631
13484.900305	1.67818
13485.400305	1.65539
13485.900305	1.64704
13486.400305	1.65151
13486.900305	1.66724
13487.400305	1.69181
13487.900305	1.72331
13488.400305	1.75898
13489.000305	1.80150
13489.400305	1.83408
13489.900305	1.87332
13490.400305	1.91258
13490.900305	1.95144
13491.400305	1.98653
13491.900305	2.01895
13492.800305	2.07923
13494.500305	2.15803
13495.300305	2.18095
13496.300305	2.19685
13497.200305	2.20322
13498.100305	2.20295
13499.100305	2.19337
13500.000305	2.17904
13501.100305	2.15613
13502.100305	2.13318
13503.100305	2.10698
13504.200305	2.07505
13505.300306	2.04484
13506.400306	2.01452
13507.500306	1.98713
13508.700306	1.96077
13509.800306	1.94141
13511.000306	1.92504
13512.200306	1.91338
13513.400306	1.90682
13514.600306	1.90405
13515.900306	1.90482
13517.100306	1.90955
13518.400306	1.91784
13519.600306	1.92639
13521.000306	1.93698
13522.300306	1.94711
13523.700306	1.95757
13525.100306	1.96643
13526.500306	1.97327
13527.900306	1.97818
13529.400306	1.98060
13530.900306	1.97918
13532.300306	1.97619
13533.800306	1.96980
13535.300306	1.96220
13536.800306	1.95238
13538.400306	1.94122
13540.000306	1.92940
13541.500306	1.91871
13543.200306	1.90743
13544.800306	1.89800
13546.400306	1.88903
13548.100306	1.88215
13549.800307	1.87645
13551.500307	1.87370
13553.200307	1.87143
13554.900307	1.87062
13556.600307	1.87123
13558.400307	1.87242
13560.300307	1.87472
13562.100307	1.87708
13564.000307	1.87939
13565.800307	1.88246
13567.700307	1.88465
13569.600307	1.88620
13571.400307	1.88653
13573.400307	1.88465
13575.400307	1.88304
13577.300307	1.88031
13579.300307	1.87770
13581.300307	1.87464
13583.300307	1.87137
13585.300307	1.86738
13587.300307	1.86361
13589.500307	1.85910
13591.600307	1.85635
13593.700308	1.85406
13595.800308	1.85188
13598.000308	1.85052
13600.200308	1.84964
13602.400308	1.84927
13604.600308	1.84810
13606.800308	1.84753
13609.100308	1.84621
13611.300308	1.84557
13613.600308	1.84422
13615.900308	1.84309
13618.200308	1.84113
13620.500308	1.83967
13622.900308	1.83741
13625.200308	1.83513
13627.700308	1.83197
13630.100308	1.82944
13632.500308	1.82634
13634.900308	1.82303
13637.600309	1.81942
13640.000309	1.81587
13642.400309	1.81298
13644.900309	1.80973
13647.600309	1.80721
13650.100309	1.80425
13652.800309	1.80184
13655.300309	1.79925
13658.000309	1.79719
13660.600309	1.79508
13663.200309	1.79288
13666.000309	1.79085
13668.600309	1.78846
13671.400309	1.78583
13674.100309	1.78429
13676.900309	1.78112
13679.600309	1.77939
13682.400310	1.77624
13685.200310	1.77445
13688.100310	1.77216
13690.900310	1.77024
13693.800310	1.76761
13696.700310	1.76545
13699.600310	1.76270
13702.500310	1.75977
13705.500310	1.75753
13708.500310	1.75500
13711.500310	1.75307
13714.500310	1.75015
13717.500310	1.74784
13720.500310	1.74520
13723.500310	1.74273
13726.700311	1.73997
13729.800311	1.73700
13732.800311	1.73466
13736.000311	1.73208
13739.200311	1.72972
13742.400311	1.72693
13745.500311	1.72396
13748.700311	1.72134
13751.900311	1.71864
13755.200311	1.71624
13758.500311	1.71326
13761.800311	1.71031
13765.100311	1.70729
13768.500311	1.70400
13771.800312	1.70102
13775.100312	1.69814
13778.500312	1.69482
13781.900312	1.69229
13785.300312	1.68936
13788.700312	1.68641
13792.100312	1.68327
13795.700312	1.68035
13799.200312	1.67736
13802.700312	1.67414
13806.300312	1.67139
13809.700312	1.66843
13813.200312	1.66553
13816.900313	1.66256
13820.500313	1.65895
13824.100313	1.65589
13827.900313	1.65251
13831.500313	1.64929
13835.200313	1.64638
13838.900313	1.64345
13842.600313	1.63949
13846.300313	1.63677
13850.100313	1.63337
13853.700313	1.63002
13857.700313	1.62708
13861.500314	1.62352
13865.200314	1.62077
13869.100314	1.61722
13873.000314	1.61379
13876.900314	1.60999
13880.900314	1.60614
13884.700314	1.60328
13888.700314	1.59943
13892.600314	1.59546
13896.700314	1.59214
13900.700314	1.58849
13904.600315	1.58522
13908.800315	1.58138
13912.800315	1.57788
13916.900315	1.57461
13921.000315	1.57122
13925.000315	1.56748
13929.200315	1.56385
13933.400315	1.56018
13937.500315	1.55659
13941.800315	1.55316
13946.000315	1.54919
13950.300316	1.54561
13954.400316	1.54236
13958.700316	1.53847
13962.900316	1.53454
13967.200316	1.53127
13971.600316	1.52767
13975.900316	1.52423
13980.300316	1.52064
13984.700316	1.51685
13989.100316	1.51292
13993.500317	1.50898
13998.000317	1.50571
14002.400317	1.50190
14006.800317	1.49812
14011.600317	1.49376
14015.900317	1.49030
14020.400317	1.48682
14024.900317	1.48316
14029.500317	1.47944
14034.100317	1.47569
14038.700318	1.47177
14043.400318	1.46802
14047.900318	1.46459
14052.700318	1.46050
14057.300318	1.45663
14062.100318	1.45289
14066.800318	1.44879
14071.500318	1.44506
14076.300318	1.44108
14081.000319	1.43727
14085.900319	1.43389
14090.600319	1.43004
14095.500319	1.42564
14100.300319	1.42241
14105.300319	1.41829
14110.000319	1.41446
14115.000319	1.41023
14119.900319	1.40680
14124.900320	1.40258
14129.800320	1.39866
14134.800320	1.39509
14139.800320	1.39115
14144.900320	1.38721
14149.900320	1.38347
14154.900320	1.37952
14160.100320	1.37533
14164.900320	1.37190
14170.200321	1.36775
14175.300321	1.36361
14180.600321	1.35967
14185.700321	1.35608
14191.000321	1.35190
14196.000321	1.34810
14201.300321	1.34415
14206.500321	1.34017
14211.800321	1.33630
14217.100322	1.33230
14222.500322	1.32852
14227.700322	1.32395
14233.100322	1.31995
14238.400322	1.31596
14244.000322	1.31201
14249.200322	1.30819
14254.700322	1.30397
14260.100323	1.30020
14265.600323	1.29585
14270.900323	1.29183
14276.500323	1.28809
14281.900323	1.28411
14287.600323	1.27988
14293.000323	1.27604
14298.700323	1.27216
14304.300324	1.26781
14309.900324	1.26394
14315.400324	1.25999
14321.100324	1.25598
14326.900324	1.25163
14332.400324	1.24787
14338.200324	1.24360
14343.900324	1.23959
14349.600325	1.23566
14355.400325	1.23115
14361.200325	1.22793
14367.000325	1.22303
14372.900325	1.21928
14378.600325	1.21505
14384.600325	1.21099
14390.400326	1.20730
14396.300326	1.20325
14402.100326	1.19954
14408.100326	1.19568
14414.000326	1.19141
14420.000326	1.18763
14426.000326	1.18377
14432.000326	1.18009
14438.100327	1.17564
14444.000327	1.17171
