# XDI/1.0
# Column.1: energy(ev)
# Column.2: fluorescence_emission(au)
# Element.symbol: Co
# Element.edge: K
# Mono.name: Si 2 2 0
# Mono.d_spacing: 1.92
# Beamline.name: FAME
# Sample.name: Frozen solution of CoSO4
# Sample.temperature: 15.0 +/- 3.0 K
# Sample.pressure: None
# Citation.doi:  https://doi.org/10.26302/SSHADE/EXPERIMENT_FS_20201007_001
# Citation.comments: Stellato, Francesco; Morante, Silvia; Proux, Olivier; Consalvi, Valerio (2020): Co K edge XAS fluorescence of CoSO4 in buffer for the study of the Iron binding site in the mature and C-terminal regions of wild-type and mutant human frataxin.. SSHADE/FAME (OSUG Data Center). Dataset/Spectral Data. https://doi.org/10.26302/SSHADE/EXPERIMENT_FS_20201007_001Schmitt, Bernard; Bollard, Philippe; Albert, Damien; Garenne, Alexandre; Bonal, Lydie; and the SSHADE partner's consortium (2018). SSHADE: 'Solid Spectroscopy Hosting Architecture of Databases and Expertise'. OSUG Data Center. Service/Database infrastructure. https://doi.org/10.26302/SSHADE
# ////
#---------
# energy(ev)	fluorescence_emission(au)
7581.780000	0.00271
7583.920000	0.00269
7585.900000	0.00267
7587.920000	0.00261
7589.950000	0.00260
7591.900000	0.00258
7593.970000	0.00251
7595.990000	0.00252
7598.000000	0.00250
7600.050000	0.00245
7602.080000	0.00246
7604.070000	0.00242
7606.070000	0.00239
7608.060000	0.00235
7610.060000	0.00236
7612.080000	0.00231
7614.020000	0.00230
7616.080000	0.00227
7618.090000	0.00224
7620.030000	0.00223
7622.100000	0.00220
7624.050000	0.00218
7626.070000	0.00219
7628.060000	0.00215
7630.100000	0.00214
7632.020000	0.00214
7634.100000	0.00208
7636.060000	0.00208
7638.050000	0.00208
7640.080000	0.00206
7642.060000	0.00204
7644.060000	0.00201
7646.110000	0.00200
7648.040000	0.00198
7650.090000	0.00199
7652.060000	0.00196
7654.040000	0.00197
7656.070000	0.00194
7658.100000	0.00193
7660.030000	0.00193
7662.080000	0.00190
7664.090000	0.00188
7666.040000	0.00189
7668.080000	0.00187
7670.080000	0.00186
7672.050000	0.00186
7674.080000	0.00185
7676.080000	0.00183
7678.060000	0.00183
7680.080000	0.00180
7682.080000	0.00179
7684.050000	0.00180
7686.070000	0.00180
7688.070000	0.00177
7690.060000	0.00179
7690.460000	0.00177
7690.690000	0.00179
7690.950000	0.00178
7691.270000	0.00178
7691.540000	0.00178
7691.860000	0.00178
7692.170000	0.00177
7692.480000	0.00177
7692.750000	0.00177
7693.060000	0.00177
7693.350000	0.00177
7693.670000	0.00178
7693.950000	0.00177
7694.250000	0.00177
7694.550000	0.00177
7694.870000	0.00176
7695.160000	0.00176
7695.470000	0.00176
7695.760000	0.00177
7696.080000	0.00176
7696.350000	0.00177
7696.660000	0.00176
7696.960000	0.00177
7697.270000	0.00176
7697.550000	0.00175
7697.870000	0.00177
7698.170000	0.00175
7698.480000	0.00177
7698.750000	0.00176
7699.050000	0.00176
7699.360000	0.00177
7699.670000	0.00177
7699.950000	0.00178
7700.250000	0.00177
7700.550000	0.00177
7700.870000	0.00177
7701.160000	0.00176
7701.460000	0.00176
7701.760000	0.00177
7702.070000	0.00177
7702.360000	0.00176
7702.660000	0.00176
7702.960000	0.00178
7703.270000	0.00177
7703.560000	0.00178
7703.870000	0.00178
7704.170000	0.00179
7704.480000	0.00178
7704.750000	0.00179
7705.050000	0.00179
7705.360000	0.00179
7705.670000	0.00180
7705.950000	0.00181
7706.240000	0.00180
7706.560000	0.00180
7706.880000	0.00181
7707.150000	0.00181
7707.470000	0.00182
7707.770000	0.00183
7708.070000	0.00183
7708.340000	0.00185
7708.670000	0.00185
7708.960000	0.00187
7709.280000	0.00189
7709.550000	0.00191
7709.880000	0.00194
7710.160000	0.00199
7710.480000	0.00200
7710.750000	0.00202
7711.050000	0.00203
7711.360000	0.00202
7711.670000	0.00202
7711.940000	0.00202
7712.250000	0.00200
7712.560000	0.00199
7712.880000	0.00200
7713.160000	0.00201
7713.460000	0.00202
7713.760000	0.00203
7714.070000	0.00205
7714.360000	0.00208
7714.660000	0.00208
7714.960000	0.00212
7715.280000	0.00216
7715.560000	0.00219
7715.870000	0.00225
7716.170000	0.00229
7716.470000	0.00236
7716.750000	0.00243
7717.060000	0.00257
7717.360000	0.00269
7717.670000	0.00290
7717.940000	0.00312
7718.260000	0.00341
7718.570000	0.00374
7718.880000	0.00406
7719.160000	0.00437
7719.460000	0.00476
7719.770000	0.00515
7720.070000	0.00556
7720.360000	0.00603
7720.660000	0.00654
7720.960000	0.00710
7721.280000	0.00769
7721.570000	0.00829
7721.860000	0.00892
7722.160000	0.00969
7722.470000	0.01050
7722.750000	0.01130
7723.060000	0.01221
7723.360000	0.01312
7723.660000	0.01395
7723.940000	0.01482
7724.260000	0.01574
7724.570000	0.01650
7724.880000	0.01717
7725.150000	0.01770
7725.460000	0.01826
7725.760000	0.01860
7726.080000	0.01876
7726.360000	0.01891
7726.660000	0.01882
7726.960000	0.01862
7727.280000	0.01829
7727.560000	0.01792
7727.870000	0.01748
7728.160000	0.01702
7728.470000	0.01655
7728.750000	0.01600
7729.060000	0.01551
7729.350000	0.01514
7729.670000	0.01473
7729.950000	0.01438
7730.270000	0.01408
7730.570000	0.01375
7730.880000	0.01349
7731.150000	0.01327
7731.460000	0.01309
7731.770000	0.01288
7732.080000	0.01268
7732.350000	0.01250
7732.660000	0.01230
7732.960000	0.01214
7733.290000	0.01207
7733.560000	0.01190
7733.860000	0.01177
7734.160000	0.01167
7734.470000	0.01158
7734.750000	0.01146
7735.050000	0.01136
7735.350000	0.01134
7735.670000	0.01120
7735.950000	0.01114
7736.270000	0.01110
7736.570000	0.01106
7736.880000	0.01098
7737.160000	0.01093
7737.460000	0.01092
7737.760000	0.01088
7738.080000	0.01083
7738.350000	0.01077
7738.660000	0.01079
7738.970000	0.01073
7739.290000	0.01066
7739.560000	0.01060
7739.860000	0.01059
7740.150000	0.01051
7740.470000	0.01043
7740.750000	0.01036
7741.050000	0.01038
7741.350000	0.01030
7741.670000	0.01021
7741.960000	0.01019
7742.260000	0.01009
7742.570000	0.01003
7742.880000	0.00997
7743.150000	0.00991
7743.460000	0.00980
7743.770000	0.00977
7744.080000	0.00968
7744.350000	0.00966
7744.660000	0.00957
7744.970000	0.00948
7745.280000	0.00940
7745.560000	0.00934
7745.860000	0.00928
7746.150000	0.00921
7746.480000	0.00916
7746.750000	0.00908
7747.050000	0.00902
7747.360000	0.00896
7747.670000	0.00889
7747.960000	0.00881
7748.270000	0.00875
7748.570000	0.00869
7748.870000	0.00866
7749.160000	0.00862
7749.460000	0.00859
7749.770000	0.00852
7750.080000	0.00852
7750.350000	0.00850
7750.660000	0.00847
7750.970000	0.00841
7751.290000	0.00842
7751.560000	0.00843
7751.850000	0.00841
7752.160000	0.00839
7752.470000	0.00844
7752.750000	0.00845
7753.060000	0.00849
7753.360000	0.00849
7753.670000	0.00856
7753.960000	0.00857
7754.260000	0.00863
7754.570000	0.00866
7754.880000	0.00871
7755.150000	0.00878
7755.460000	0.00886
7755.770000	0.00892
7756.070000	0.00898
7756.350000	0.00905
7756.670000	0.00912
7756.980000	0.00924
7757.280000	0.00930
7757.560000	0.00936
7757.850000	0.00946
7758.160000	0.00955
7758.470000	0.00962
7758.750000	0.00969
7759.050000	0.00979
7759.360000	0.00988
7759.680000	0.00995
7759.960000	0.01003
7760.260000	0.01010
7760.570000	0.01020
7760.870000	0.01028
7761.160000	0.01030
7761.460000	0.01043
7761.760000	0.01046
7762.070000	0.01053
7762.360000	0.01064
7762.670000	0.01068
7762.970000	0.01073
7763.280000	0.01077
7763.550000	0.01084
7763.850000	0.01084
7764.160000	0.01092
7764.470000	0.01099
7764.750000	0.01100
7765.050000	0.01106
7765.360000	0.01110
7765.680000	0.01109
7765.960000	0.01119
7766.260000	0.01123
7766.560000	0.01123
7766.880000	0.01123
7767.150000	0.01125
7767.460000	0.01129
7767.770000	0.01131
7768.070000	0.01134
7768.350000	0.01138
7768.670000	0.01134
7768.970000	0.01136
7769.270000	0.01142
7769.550000	0.01141
7769.850000	0.01140
7770.150000	0.01143
7770.470000	0.01147
7770.750000	0.01146
7771.050000	0.01146
7771.360000	0.01146
7771.680000	0.01148
7771.960000	0.01147
7772.260000	0.01148
7772.560000	0.01149
7772.870000	0.01146
7773.150000	0.01147
7773.460000	0.01150
7773.760000	0.01151
7774.070000	0.01152
7774.360000	0.01154
7774.670000	0.01154
7774.970000	0.01154
7775.280000	0.01153
7775.550000	0.01151
7775.850000	0.01150
7776.160000	0.01154
7776.470000	0.01153
7776.750000	0.01154
7777.050000	0.01151
7777.360000	0.01150
7777.680000	0.01151
7777.960000	0.01149
7778.270000	0.01149
7778.550000	0.01147
7778.880000	0.01146
7779.160000	0.01150
7779.460000	0.01147
7779.760000	0.01145
7780.080000	0.01144
7780.350000	0.01143
7780.670000	0.01145
7780.980000	0.01142
7781.270000	0.01140
7781.550000	0.01139
7781.850000	0.01137
7782.160000	0.01139
7782.470000	0.01136
7782.750000	0.01134
7783.050000	0.01134
7783.360000	0.01129
7783.690000	0.01132
7783.960000	0.01129
7784.260000	0.01129
7784.570000	0.01125
7784.880000	0.01126
7785.150000	0.01120
7785.450000	0.01122
7785.770000	0.01118
7786.080000	0.01121
7786.360000	0.01116
7786.670000	0.01113
7786.970000	0.01114
7787.280000	0.01111
7787.560000	0.01110
7787.850000	0.01108
7788.160000	0.01109
7788.470000	0.01104
7788.750000	0.01100
7789.050000	0.01100
7789.370000	0.01099
7789.680000	0.01096
7789.960000	0.01091
7790.260000	0.01092
7790.560000	0.01093
7790.870000	0.01087
7791.160000	0.01086
7791.460000	0.01083
7791.760000	0.01081
7792.070000	0.01081
7792.360000	0.01079
7792.670000	0.01078
7792.970000	0.01072
7793.280000	0.01074
7793.540000	0.01070
7793.860000	0.01064
7794.160000	0.01065
7794.480000	0.01062
7794.750000	0.01062
7795.060000	0.01057
7795.370000	0.01053
7795.690000	0.01048
7795.960000	0.01053
7796.260000	0.01048
7796.560000	0.01047
7796.880000	0.01041
7797.160000	0.01038
7797.460000	0.01041
7797.760000	0.01036
7798.070000	0.01031
7798.360000	0.01035
7798.680000	0.01029
7798.970000	0.01030
7799.270000	0.01028
7800.960000	0.01017
7804.920000	0.00998
7806.800000	0.01001
7808.740000	0.01001
7810.700000	0.01002
7812.630000	0.01006
7814.640000	0.01013
7816.660000	0.01016
7818.650000	0.01022
7820.710000	0.01027
7822.800000	0.01037
7824.830000	0.01037
7826.960000	0.01042
7829.100000	0.01046
7831.170000	0.01050
7833.370000	0.01054
7835.570000	0.01054
7837.720000	0.01060
7839.950000	0.01062
7842.190000	0.01065
7844.430000	0.01068
7846.720000	0.01067
7848.990000	0.01073
7851.300000	0.01073
7853.640000	0.01076
7855.960000	0.01074
7858.340000	0.01071
7860.730000	0.01069
7863.110000	0.01065
7865.560000	0.01064
7867.950000	0.01057
7870.430000	0.01051
7872.930000	0.01047
7875.400000	0.01041
7877.950000	0.01037
7880.440000	0.01032
7883.000000	0.01030
7885.590000	0.01027
7888.170000	0.01025
7890.800000	0.01021
7893.400000	0.01022
7896.070000	0.01022
7898.700000	0.01016
7901.390000	0.01017
7904.120000	0.01017
7906.820000	0.01017
7909.580000	0.01018
7912.300000	0.01017
7915.120000	0.01014
7917.880000	0.01021
7920.730000	0.01017
7923.530000	0.01019
7926.390000	0.01021
7929.260000	0.01022
7932.150000	0.01022
7935.070000	0.01021
7938.010000	0.01021
7940.970000	0.01022
7943.910000	0.01022
7946.920000	0.01020
7949.900000	0.01019
7952.950000	0.01018
7955.960000	0.01016
7959.050000	0.01017
7962.100000	0.01015
7965.240000	0.01013
7968.330000	0.01009
7971.510000	0.01007
7974.620000	0.01004
7977.830000	0.01001
7981.000000	0.01001
7984.250000	0.00997
7987.440000	0.00994
7990.730000	0.00992
7993.990000	0.00994
7997.240000	0.00993
8000.590000	0.00987
8003.880000	0.00988
8007.260000	0.00988
8010.620000	0.00987
8013.980000	0.00985
8017.400000	0.00985
8020.820000	0.00986
8024.260000	0.00984
8027.740000	0.00983
8031.170000	0.00984
8034.710000	0.00982
8038.170000	0.00983
8041.760000	0.00978
8045.270000	0.00980
8048.860000	0.00979
8052.440000	0.00980
8056.070000	0.00979
8059.690000	0.00978
8063.310000	0.00978
8067.010000	0.00976
8070.650000	0.00976
8074.380000	0.00974
8078.090000	0.00974
8081.860000	0.00973
8085.610000	0.00971
8089.350000	0.00969
8093.180000	0.00968
8096.970000	0.00968
8100.810000	0.00963
8104.680000	0.00964
8108.540000	0.00964
8112.440000	0.00960
8116.310000	0.00960
8120.260000	0.00958
8124.210000	0.00956
8128.160000	0.00957
8132.180000	0.00957
8136.140000	0.00956
8140.180000	0.00949
8144.260000	0.00950
8148.270000	0.00951
8152.360000	0.00950
8156.450000	0.00949
8160.590000	0.00948
8164.720000	0.00945
8168.840000	0.00946
8173.030000	0.00946
8177.260000	0.00947
8181.440000	0.00947
8185.710000	0.00944
8189.960000	0.00945
8194.210000	0.00945
8198.540000	0.00944
8202.790000	0.00942
8207.150000	0.00940
8211.500000	0.00940
8215.820000	0.00939
8220.220000	0.00939
8224.660000	0.00937
8229.060000	0.00937
8233.480000	0.00934
8238.030000	0.00933
8242.400000	0.00930
8246.940000	0.00931
8251.480000	0.00929
8255.970000	0.00927
8260.520000	0.00926
8265.140000	0.00926
8269.870000	0.00924
8274.080000	0.00924
8279.010000	0.00922
8283.590000	0.00923
8288.240000	0.00922
8292.960000	0.00922
8297.640000	0.00922
8302.360000	0.00920
8307.110000	0.00918
8311.870000	0.00919
8316.630000	0.00919
8321.450000	0.00919
8326.290000	0.00919
8331.080000	0.00916
8335.930000	0.00914
8340.830000	0.00911
8345.700000	0.00909
8350.610000	0.00910
8355.550000	0.00909
8360.500000	0.00908
8365.450000	0.00907
8370.410000	0.00905
8375.470000	0.00904
8380.480000	0.00903
8385.510000	0.00903
8390.580000	0.00901
8395.690000	0.00900
8400.770000	0.00901
8405.850000	0.00899
8411.050000	0.00899
8416.200000	0.00895
8421.370000	0.00896
8426.550000	0.00895
8431.800000	0.00895
8437.010000	0.00895
8442.250000	0.00892
8447.530000	0.00892
8452.830000	0.00892
8458.130000	0.00889
8463.450000	0.00888
8468.800000	0.00889
8474.170000	0.00890
8479.550000	0.00887
8484.940000	0.00887
8490.370000	0.00886
8495.820000	0.00886
8501.280000	0.00884
8506.740000	0.00883
8512.250000	0.00883
8517.780000	0.00880
8523.290000	0.00880
8528.840000	0.00880
8534.410000	0.00879
8540.030000	0.00878
8545.620000	0.00878
8551.260000	0.00877
8556.870000	0.00875
