# XDI/1.0
# Column.1: energy(ev)
# Column.2: fluorescence_emission(au)
# Element.symbol: Ga
# Element.edge: K
# Mono.name: Si 2 2 0
# Mono.d_spacing: 1.92
# Beamline.name: FAME
# Sample.name: Gallium bromide solution in hydrothermal conditions: Ga3+ 0.17m, Br- 0.51m
# Sample.temperature: 605.0 +/- 0.1 K
# Sample.pressure: 300.0 +/- 0.5 bar
# Citation.doi:  https://doi.org/10.26302/SSHADE/EXPERIMENT_DT_20180710_002
# Citation.comments: Da Silva, CÃ©cile; Testemale, Denis; Hazemann, Jean-Louis; Proux, Olivier (2006): Ga K edge XAS fluorescence of gallium bromide solution in hydrothermal conditions at 300bars and between 300 and 670K. SSHADE/FAME (OSUG Data Center). Dataset/Spectral Data. https://doi.org/10.26302/SSHADE/EXPERIMENT_DT_20180710_002Schmitt, Bernard; Bollard, Philippe; Albert, Damien; Garenne, Alexandre; Bonal, Lydie; and the SSHADE partner's consortium (2018). SSHADE: 'Solid Spectroscopy Hosting Architecture of Databases and Expertise'. OSUG Data Center. Service/Database infrastructure. https://doi.org/10.26302/SSHADE
# ////
#---------
# energy(ev)	fluorescence_emission(au)
10229.600231	0.02053
10234.900232	0.02000
10240.000232	0.01986
10245.000232	0.01969
10250.000232	0.01941
10254.900232	0.01917
10260.000232	0.01883
10265.000232	0.01857
10270.000232	0.01835
10274.900232	0.01837
10280.000233	0.01806
10284.900233	0.01796
10290.100233	0.01772
10295.000233	0.01778
10300.100233	0.01760
10305.000233	0.01744
10310.000233	0.01749
10315.000233	0.01746
10320.000233	0.01744
10325.100234	0.01769
10330.000234	0.01778
10335.000234	0.01810
10340.000234	0.01868
10344.900234	0.01924
10350.000234	0.02043
10355.000234	0.02249
10360.000234	0.02585
10360.400234	0.02663
10360.900234	0.02700
10361.500234	0.02780
10361.900234	0.02838
10362.400234	0.02926
10362.900234	0.02999
10363.400234	0.03101
10363.900234	0.03184
10364.500234	0.03299
10364.900234	0.03449
10365.400234	0.03593
10366.000234	0.03765
10366.400235	0.03937
10367.000235	0.04165
10367.400235	0.04391
10367.900235	0.04692
10368.500235	0.05073
10368.900235	0.05428
10369.400235	0.05937
10369.900235	0.06563
10370.400235	0.07228
10371.000235	0.08385
10371.400235	0.09664
10372.000235	0.12158
10372.500235	0.14908
10373.000235	0.18825
10373.500235	0.24287
10373.900235	0.32241
10374.500235	0.46142
10375.000235	0.63014
10375.500235	0.87463
10375.900235	1.04469
10376.500235	1.13031
10377.000235	1.07393
10377.500235	0.91899
10378.000235	0.77460
10378.500235	0.67591
10379.000235	0.62113
10379.400235	0.58921
10379.900235	0.57320
10380.400235	0.56258
10380.900235	0.55274
10381.400235	0.54136
10381.900235	0.53390
10382.500235	0.52772
10382.900235	0.52496
10383.400235	0.52370
10383.900235	0.52395
10384.400235	0.52471
10385.000235	0.52537
10385.500235	0.52545
10385.900235	0.52375
10386.400235	0.52084
10386.900235	0.51629
10387.400235	0.51017
10387.900235	0.50445
10388.500235	0.49665
10389.000235	0.49121
10389.500235	0.48733
10390.000235	0.48256
10390.400235	0.47852
10391.000235	0.47483
10391.400235	0.47142
10391.900235	0.47000
10392.400235	0.46687
10392.900235	0.46557
10393.400235	0.46387
10394.000235	0.46244
10394.400235	0.46196
10394.900235	0.46062
10395.400235	0.46007
10395.900235	0.45980
10396.500235	0.45805
10397.000235	0.45728
10397.500235	0.45605
10397.900235	0.45541
10398.400235	0.45420
10398.900235	0.45308
10399.400235	0.45164
10399.900235	0.45069
10400.500235	0.44827
10401.000235	0.44758
10401.500235	0.44684
10402.000235	0.44528
10402.500235	0.44426
10402.900235	0.44291
10403.400235	0.44250
10403.900235	0.44171
10404.500235	0.44066
10404.900235	0.44024
10405.400235	0.43948
10406.000235	0.43909
10406.500235	0.43929
10406.900235	0.43890
10407.400235	0.43965
10407.900235	0.44034
10408.500235	0.44156
10409.000235	0.44294
10409.400235	0.44473
10410.000235	0.44586
10410.400235	0.44620
10410.900236	0.44865
10411.400236	0.44995
10412.000236	0.45013
10412.500236	0.45150
10413.000236	0.45285
10413.500236	0.45490
10413.900236	0.45656
10414.400236	0.45849
10414.900236	0.46039
10415.400236	0.46158
10415.900236	0.46354
10416.500236	0.46453
10416.900236	0.46562
10417.500236	0.46670
10418.000236	0.46798
10418.400236	0.46837
10418.900236	0.46996
10420.400236	0.47258
10423.300236	0.47792
10424.700236	0.47973
10426.200236	0.48088
10427.700236	0.48096
10429.300236	0.48161
10430.800236	0.48105
10432.300236	0.48084
10433.900236	0.48043
10435.500236	0.48002
10437.100236	0.47913
10438.700236	0.47967
10440.400236	0.47936
10442.100236	0.47928
10443.800236	0.48004
10445.600236	0.48009
10447.300236	0.48076
10449.000236	0.48130
10450.800236	0.48244
10452.600236	0.48283
10454.400236	0.48405
10456.200237	0.48450
10458.000237	0.48508
10459.900237	0.48557
10461.800237	0.48588
10463.700237	0.48591
10465.600237	0.48527
10467.600237	0.48540
10469.600237	0.48487
10471.500237	0.48336
10473.500237	0.48179
10475.500237	0.47982
10477.500237	0.47782
10479.600237	0.47600
10481.700237	0.47337
10483.700237	0.47104
10485.900237	0.46891
10488.000237	0.46688
10490.100237	0.46666
10492.300237	0.46575
10494.500237	0.46536
10496.700237	0.46596
10498.900237	0.46756
10501.100238	0.46929
10503.400238	0.47225
10505.600238	0.47395
10508.000238	0.47610
10510.300238	0.47824
10512.600238	0.48102
10515.000238	0.48320
10517.300238	0.48601
10519.800238	0.48840
10522.100238	0.49004
10524.500238	0.49133
10527.100238	0.49224
10529.500238	0.49280
10532.000238	0.49327
10534.400238	0.49309
10537.000238	0.49238
10539.500238	0.49113
10542.100238	0.49007
10544.700239	0.48775
10547.300239	0.48526
10549.900239	0.48388
10552.500239	0.48121
10555.200239	0.47928
10557.800239	0.47713
10560.600239	0.47481
10563.200239	0.47413
10566.000239	0.47291
10568.700239	0.47199
10571.600239	0.47169
10574.300239	0.47186
10577.200239	0.47251
10579.900239	0.47341
10582.800239	0.47414
10585.600239	0.47610
10588.500240	0.47689
10591.400240	0.47847
10594.300240	0.48016
10597.300240	0.48246
10600.300240	0.48390
10603.200240	0.48545
10606.200240	0.48645
10609.200240	0.48730
10612.300240	0.48788
10615.300240	0.48834
10618.400240	0.48928
10621.400240	0.48849
10624.600240	0.48778
10627.700240	0.48720
10630.800240	0.48580
10634.000241	0.48391
10637.200241	0.48340
10640.400241	0.48150
10643.700241	0.48024
10646.900241	0.47862
10650.100241	0.47756
10653.400241	0.47656
10656.700241	0.47516
10660.000241	0.47461
10663.400241	0.47398
10666.700241	0.47380
10670.000241	0.47336
10673.400241	0.47341
10677.000242	0.47388
10680.300242	0.47487
10683.800242	0.47581
10687.200242	0.47604
10690.700242	0.47729
10694.200242	0.47816
10697.700242	0.47902
10701.300242	0.47984
10704.800242	0.48012
10708.400242	0.48061
10712.100242	0.48091
10715.600242	0.48190
10719.300242	0.48180
10723.000243	0.48158
10726.600243	0.48123
10730.300243	0.48108
10734.000243	0.48028
10737.700243	0.47960
10741.500243	0.47874
10745.300243	0.47723
10749.100243	0.47732
10752.900243	0.47567
10756.700243	0.47530
10760.600243	0.47424
10764.400244	0.47336
10768.200244	0.47256
10772.200244	0.47213
10776.100244	0.47164
10780.100244	0.47198
10784.100244	0.47161
10787.900244	0.47192
10791.900244	0.47187
10796.000244	0.47201
10800.000244	0.47251
10804.000244	0.47245
10808.100244	0.47308
10812.300245	0.47339
10816.300245	0.47397
10820.500245	0.47465
10824.600245	0.47438
10828.700245	0.47477
10833.000245	0.47487
10837.100245	0.47460
10841.400245	0.47476
10845.700245	0.47464
10849.900245	0.47485
10854.200246	0.47455
10858.500246	0.47359
10862.800246	0.47339
10867.100246	0.47269
10871.400246	0.47201
10875.800246	0.47156
10880.200246	0.47144
10884.600246	0.47074
10889.100246	0.47034
10893.500246	0.47002
10898.000247	0.46937
10902.500247	0.46919
10906.900247	0.46872
10911.500247	0.46854
10916.000247	0.46823
10920.500247	0.46795
10925.300247	0.46855
10929.700247	0.46875
10934.300247	0.46873
10939.000247	0.46878
10943.700248	0.46868
10948.400248	0.46900
10953.000248	0.46872
10957.800248	0.46898
10962.500248	0.46907
10967.200248	0.46912
10972.000248	0.46933
10976.700248	0.46929
10981.600248	0.46900
10986.500249	0.46874
10991.300249	0.46857
10996.100249	0.46860
11001.100249	0.46793
11006.000249	0.46759
11010.800249	0.46697
11015.700249	0.46675
11020.700249	0.46706
11025.700249	0.46647
11030.800250	0.46590
11035.700250	0.46581
11040.700250	0.46524
11045.800250	0.46530
11050.900250	0.46463
11055.900250	0.46504
11061.100250	0.46472
11066.200250	0.46453
11071.400250	0.46452
11076.500251	0.46402
11081.700251	0.46416
11086.900251	0.46404
11092.100251	0.46465
11097.400251	0.46366
11102.600251	0.46384
11107.900251	0.46519
11113.200251	0.46531
11118.500252	0.46513
11123.800252	0.46511
11129.100252	0.46473
11134.600252	0.46474
11139.900252	0.46433
11145.400252	0.46418
11150.800252	0.46402
11156.300252	0.46389
11161.700252	0.46349
11167.200253	0.46307
11172.700253	0.46249
11178.300253	0.46269
11183.800253	0.46243
11189.300253	0.46184
11195.000253	0.46177
11200.500253	0.46154
11206.100253	0.46126
11211.800254	0.46086
11217.500254	0.46073
11223.100254	0.46017
11228.800254	0.46060
11234.500254	0.46033
11240.200254	0.46027
11246.000254	0.45950
11251.800255	0.45994
11257.500255	0.45966
11263.500255	0.45969
11269.200255	0.45960
11275.000255	0.45911
11280.900255	0.45972
11286.800255	0.45919
11292.700255	0.45879
11298.500256	0.45886
11304.500256	0.45859
11310.500256	0.45915
11316.400256	0.45853
11322.500256	0.45847
11328.500256	0.45841
