# XDI/1.0
# Column.1: energy(ev)
# Column.2: fluorescence_emission(au)
# Element.symbol: Ga
# Element.edge: K
# Mono.name: Si 2 2 0
# Mono.d_spacing: 1.92
# Beamline.name: FAME
# Sample.name: Gallium bromide solution in hydrothermal conditions: Ga3+ 0.17m, Br- 0.51m
# Sample.temperature: 470.0 +/- 0.1 K
# Sample.pressure: 300.0 +/- 0.5 bar
# Citation.doi:  https://doi.org/10.26302/SSHADE/EXPERIMENT_DT_20180710_002
# Citation.comments: Da Silva, CÃ©cile; Testemale, Denis; Hazemann, Jean-Louis; Proux, Olivier (2006): Ga K edge XAS fluorescence of gallium bromide solution in hydrothermal conditions at 300bars and between 300 and 670K. SSHADE/FAME (OSUG Data Center). Dataset/Spectral Data. https://doi.org/10.26302/SSHADE/EXPERIMENT_DT_20180710_002Schmitt, Bernard; Bollard, Philippe; Albert, Damien; Garenne, Alexandre; Bonal, Lydie; and the SSHADE partner's consortium (2018). SSHADE: 'Solid Spectroscopy Hosting Architecture of Databases and Expertise'. OSUG Data Center. Service/Database infrastructure. https://doi.org/10.26302/SSHADE
# ////
#---------
# energy(ev)	fluorescence_emission(au)
10229.600231	0.01917
10234.800232	0.01903
10239.900232	0.01872
10245.000232	0.01839
10250.000232	0.01819
10254.900232	0.01783
10260.000232	0.01756
10265.000232	0.01709
10270.000232	0.01713
10274.900232	0.01665
10280.000233	0.01657
10285.000233	0.01639
10290.000233	0.01595
10295.000233	0.01587
10300.100233	0.01577
10305.000233	0.01560
10310.000233	0.01521
10315.000233	0.01527
10320.000233	0.01480
10325.000234	0.01470
10330.000234	0.01471
10335.000234	0.01461
10340.000234	0.01443
10344.900234	0.01427
10350.000234	0.01439
10355.000234	0.01433
10360.000234	0.01470
10360.400234	0.01461
10360.900234	0.01459
10361.400234	0.01472
10362.000234	0.01464
10362.500234	0.01487
10363.000234	0.01483
10363.500234	0.01480
10364.000234	0.01491
10364.500234	0.01530
10364.900234	0.01525
10365.500234	0.01514
10365.900234	0.01530
10366.400235	0.01540
10366.900235	0.01546
10367.500235	0.01587
10368.000235	0.01587
10368.500235	0.01598
10368.900235	0.01613
10369.400235	0.01647
10370.000235	0.01685
10370.400235	0.01708
10371.000235	0.01754
10371.500235	0.01807
10372.000235	0.01876
10372.400235	0.01966
10372.900235	0.02061
10373.500235	0.02235
10373.900235	0.02447
10374.500235	0.02699
10375.000235	0.03023
10375.500235	0.03405
10376.000235	0.03980
10376.400235	0.04803
10376.900235	0.06097
10377.400235	0.07755
10378.000235	0.09786
10378.400235	0.11631
10379.000235	0.13275
10379.400235	0.14393
10380.000235	0.14877
10380.500235	0.14790
10380.900235	0.14331
10381.500235	0.13660
10381.900235	0.12947
10382.500235	0.12258
10383.000235	0.11527
10383.500235	0.10807
10384.000235	0.10135
10384.400235	0.09535
10385.000235	0.08900
10385.500235	0.08328
10386.000235	0.07711
10386.500235	0.07289
10387.000235	0.06883
10387.500235	0.06534
10388.000235	0.06230
10388.500235	0.06032
10389.000235	0.05832
10389.500235	0.05729
10390.000235	0.05632
10390.400235	0.05586
10391.000235	0.05559
10391.400235	0.05560
10391.900235	0.05541
10392.400235	0.05551
10392.900235	0.05579
10393.400235	0.05557
10393.900235	0.05605
10394.500235	0.05604
10394.900235	0.05602
10395.400235	0.05579
10395.900235	0.05556
10396.500235	0.05562
10396.900235	0.05525
10397.500235	0.05501
10397.900235	0.05503
10398.400235	0.05461
10398.900235	0.05427
10399.500235	0.05397
10399.900235	0.05312
10400.400235	0.05283
10401.000235	0.05240
10401.500235	0.05206
10401.900235	0.05144
10402.400235	0.05109
10403.000235	0.05052
10403.400235	0.05019
10404.000235	0.04963
10404.400235	0.04906
10405.000235	0.04853
10405.500235	0.04796
10405.900235	0.04747
10406.500235	0.04714
10407.000235	0.04667
10407.500235	0.04635
10408.000235	0.04590
10408.400235	0.04554
10409.000235	0.04562
10409.500235	0.04541
10409.900235	0.04493
10410.400235	0.04496
10411.000236	0.04477
10411.500236	0.04508
10412.000236	0.04505
10412.400236	0.04503
10413.000236	0.04580
10413.500236	0.04599
10413.900236	0.04626
10414.400236	0.04675
10414.900236	0.04729
10415.400236	0.04766
10415.900236	0.04847
10416.500236	0.04945
10417.000236	0.04995
10417.500236	0.05070
10417.900236	0.05129
10418.500236	0.05226
10418.900236	0.05322
10420.400236	0.05517
10423.300236	0.05859
10424.700236	0.05948
10426.200236	0.06008
10427.700236	0.06024
10429.200236	0.06018
10430.800236	0.06010
10432.300236	0.06007
10433.900236	0.06026
10435.500236	0.05962
10437.100236	0.05983
10438.700236	0.05932
10440.400236	0.05885
10442.100236	0.05857
10443.800236	0.05822
10445.600236	0.05765
10447.300236	0.05732
10449.000236	0.05625
10450.800236	0.05587
10452.600236	0.05518
10454.400236	0.05461
10456.100237	0.05409
10458.100237	0.05348
10459.900237	0.05271
10461.800237	0.05227
10463.700237	0.05165
10465.600237	0.05143
10467.600237	0.05112
10469.500237	0.05095
10471.500237	0.05083
10473.500237	0.05068
10475.500237	0.05068
10477.500237	0.05079
10479.600237	0.05093
10481.700237	0.05119
10483.700237	0.05124
10485.900237	0.05165
10488.000237	0.05170
10490.100237	0.05192
10492.200237	0.05197
10494.500237	0.05222
10496.700237	0.05227
10498.900237	0.05257
10501.100238	0.05238
10503.400238	0.05236
10505.700238	0.05303
10508.000238	0.05286
10510.300238	0.05283
10512.600238	0.05302
10515.000238	0.05290
10517.300238	0.05286
10519.800238	0.05278
10522.100238	0.05267
10524.600238	0.05250
10527.000238	0.05255
10529.500238	0.05207
10532.000238	0.05212
10534.400238	0.05176
10537.100238	0.05119
10539.500238	0.05155
10542.100238	0.05126
10544.700239	0.05079
10547.300239	0.05055
10549.900239	0.05037
10552.500239	0.05034
10555.200239	0.05020
10557.900239	0.05014
10560.600239	0.04997
10563.200239	0.04979
10566.000239	0.04973
10568.700239	0.04962
10571.600239	0.04946
10574.300239	0.04954
10577.100239	0.04965
10580.000239	0.04954
10582.800239	0.04956
10585.600239	0.04939
10588.500240	0.04956
10591.400240	0.04930
10594.300240	0.04933
10597.300240	0.04942
10600.300240	0.04921
10603.200240	0.04935
10606.200240	0.04930
10609.200240	0.04935
10612.300240	0.04913
10615.300240	0.04905
10618.400240	0.04916
10621.500240	0.04917
10624.600240	0.04893
10627.600240	0.04889
10630.800240	0.04892
10634.000241	0.04890
10637.200241	0.04872
10640.400241	0.04886
10643.700241	0.04862
10646.900241	0.04843
10650.100241	0.04820
10653.400241	0.04801
10656.700241	0.04791
10660.000241	0.04791
10663.400241	0.04791
10666.700241	0.04785
10670.100241	0.04753
10673.500241	0.04776
10677.000242	0.04740
10680.300242	0.04739
10683.800242	0.04728
10687.200242	0.04716
10690.700242	0.04714
10694.200242	0.04723
10697.700242	0.04697
10701.300242	0.04691
10704.800242	0.04699
10708.400242	0.04687
10712.000242	0.04679
10715.600242	0.04662
10719.300242	0.04662
10723.000243	0.04681
10726.600243	0.04655
10730.300243	0.04659
10734.000243	0.04653
10737.700243	0.04644
10741.500243	0.04633
10745.300243	0.04640
10749.100243	0.04633
10752.900243	0.04633
10756.700243	0.04636
10760.600243	0.04611
10764.400244	0.04589
10768.200244	0.04589
10772.100244	0.04603
10776.100244	0.04579
10780.000244	0.04571
10784.100244	0.04577
10788.000244	0.04567
10791.900244	0.04555
10796.000244	0.04550
10800.000244	0.04532
10804.000244	0.04543
10808.100244	0.04528
10812.300245	0.04531
10816.300245	0.04523
10820.600245	0.04492
10824.600245	0.04499
10828.700245	0.04496
10833.000245	0.04476
10837.100245	0.04481
10841.400245	0.04474
10845.700245	0.04456
10849.900245	0.04444
10854.100246	0.04470
10858.500246	0.04457
10862.800246	0.04444
10867.100246	0.04424
10871.400246	0.04448
10875.800246	0.04428
10880.200246	0.04422
10884.600246	0.04419
10889.100246	0.04426
10893.500246	0.04396
10898.000247	0.04402
10902.500247	0.04399
10906.900247	0.04389
10911.500247	0.04376
10916.000247	0.04379
10920.500247	0.04379
10925.300247	0.04368
10929.700247	0.04366
10934.400247	0.04370
10939.000247	0.04358
10943.700248	0.04348
10948.300248	0.04334
10953.000248	0.04334
10957.700248	0.04345
10962.500248	0.04323
10967.300248	0.04322
10972.000248	0.04312
10976.800248	0.04308
10981.600248	0.04309
10986.400249	0.04318
10991.300249	0.04296
10996.100249	0.04295
11001.000249	0.04290
11005.900249	0.04271
11010.800249	0.04276
11015.700249	0.04269
11020.700249	0.04263
11025.700249	0.04260
11030.800250	0.04248
11035.700250	0.04239
11040.700250	0.04242
11045.800250	0.04237
11050.900250	0.04234
11056.000250	0.04228
11061.100250	0.04234
11066.200250	0.04202
11071.400250	0.04208
11076.500251	0.04214
11081.700251	0.04201
11086.900251	0.04206
11092.100251	0.04194
11097.400251	0.04196
11102.600251	0.04190
11107.900251	0.04297
11113.200251	0.04352
11118.600252	0.04335
11123.800252	0.04297
11129.100252	0.04308
11134.600252	0.04285
11140.000252	0.04276
11145.400252	0.04275
11150.800252	0.04278
11156.300252	0.04283
11161.700252	0.04277
11167.200253	0.04277
11172.700253	0.04257
11178.300253	0.04258
11183.900253	0.04265
11189.300253	0.04235
11194.900253	0.04245
11200.500253	0.04255
11206.100253	0.04249
11211.700254	0.04240
11217.500254	0.04240
11223.100254	0.04225
11228.800254	0.04241
11234.500254	0.04245
11240.200254	0.04235
11246.000254	0.04228
11251.700255	0.04234
11257.600255	0.04231
11263.400255	0.04221
11269.200255	0.04222
11274.900255	0.04235
11280.900255	0.04222
11286.800255	0.04218
11292.700255	0.04230
11298.500256	0.04228
11304.500256	0.04227
11310.400256	0.04212
11316.500256	0.04227
11322.500256	0.04240
11328.500256	0.04239
