# XDI/1.0
# Column.1: energy(ev)
# Column.2: fluorescence_emission(au)
# Element.symbol: Ga
# Element.edge: K
# Mono.name: Si 2 2 0
# Mono.d_spacing: 1.92
# Beamline.name: FAME
# Sample.name: Gallium bromide solution in hydrothermal conditions: Ga3+ 0.17m, Br- 0.51m
# Sample.temperature: 630.0 +/- 0.1 K
# Sample.pressure: 300.0 +/- 0.5 bar
# Citation.doi:  https://doi.org/10.26302/SSHADE/EXPERIMENT_DT_20180710_002
# Citation.comments: Da Silva, CÃ©cile; Testemale, Denis; Hazemann, Jean-Louis; Proux, Olivier (2006): Ga K edge XAS fluorescence of gallium bromide solution in hydrothermal conditions at 300bars and between 300 and 670K. SSHADE/FAME (OSUG Data Center). Dataset/Spectral Data. https://doi.org/10.26302/SSHADE/EXPERIMENT_DT_20180710_002Schmitt, Bernard; Bollard, Philippe; Albert, Damien; Garenne, Alexandre; Bonal, Lydie; and the SSHADE partner's consortium (2018). SSHADE: 'Solid Spectroscopy Hosting Architecture of Databases and Expertise'. OSUG Data Center. Service/Database infrastructure. https://doi.org/10.26302/SSHADE
# ////
#---------
# energy(ev)	fluorescence_emission(au)
10229.600231	0.02047
10234.900232	0.02021
10239.900232	0.01989
10245.000232	0.01963
10250.000232	0.01944
10254.900232	0.01908
10260.000232	0.01901
10265.000232	0.01883
10270.000232	0.01871
10274.900232	0.01843
10280.000233	0.01838
10285.000233	0.01814
10290.100233	0.01816
10295.000233	0.01791
10300.100233	0.01784
10305.000233	0.01773
10310.000233	0.01781
10315.000233	0.01808
10320.000233	0.01815
10325.000234	0.01820
10330.000234	0.01854
10335.000234	0.01908
10340.000234	0.01958
10344.900234	0.02063
10350.000234	0.02204
10355.000234	0.02471
10360.000234	0.02960
10360.400234	0.03007
10360.900234	0.03103
10361.500234	0.03180
10361.900234	0.03263
10362.400234	0.03362
10362.900234	0.03462
10363.400234	0.03594
10364.000234	0.03733
10364.400234	0.03879
10364.900234	0.04031
10365.400234	0.04241
10365.900234	0.04432
10366.400235	0.04672
10367.000235	0.04997
10367.400235	0.05252
10367.900235	0.05670
10368.400235	0.06097
10369.000235	0.06689
10369.400235	0.07283
10369.900235	0.08044
10370.500235	0.09140
10371.000235	0.10492
10371.500235	0.12534
10372.000235	0.15342
10372.500235	0.19203
10373.000235	0.24774
10373.400235	0.31042
10373.900235	0.41412
10374.400235	0.57438
10375.000235	0.82088
10375.400235	1.07363
10376.000235	1.33050
10376.400235	1.41197
10376.900235	1.34579
10377.400235	1.18829
10377.900235	0.99611
10378.400235	0.86986
10379.000235	0.78566
10379.400235	0.74641
10379.900235	0.72337
10380.500235	0.70732
10380.900235	0.69705
10381.400235	0.68391
10381.900235	0.67418
10382.500235	0.66638
10382.900235	0.66296
10383.400235	0.66237
10383.900235	0.66242
10384.400235	0.66333
10384.900235	0.66449
10385.400235	0.66453
10385.900235	0.66288
10386.500235	0.65846
10386.900235	0.65321
10387.400235	0.64703
10388.000235	0.63718
10388.400235	0.63080
10389.000235	0.62209
10389.400235	0.61729
10390.000235	0.61096
10390.400235	0.60618
10390.900235	0.60126
10391.400235	0.59769
10392.000235	0.59366
10392.400235	0.59156
10392.900235	0.58904
10393.500235	0.58753
10394.000235	0.58602
10394.400235	0.58503
10395.000235	0.58369
10395.500235	0.58215
10395.900235	0.58117
10396.500235	0.58070
10396.900235	0.57948
10397.500235	0.57821
10397.900235	0.57643
10398.400235	0.57493
10399.000235	0.57349
10399.400235	0.57191
10399.900235	0.57061
10400.500235	0.56906
10400.900235	0.56823
10401.500235	0.56631
10402.000235	0.56433
10402.400235	0.56301
10402.900235	0.56211
10403.400235	0.56103
10403.900235	0.56013
10404.400235	0.55878
10404.900235	0.55819
10405.400235	0.55784
10406.000235	0.55751
10406.400235	0.55734
10407.000235	0.55755
10407.400235	0.55738
10407.900235	0.55891
10408.400235	0.55997
10409.000235	0.56193
10409.400235	0.56373
10410.000235	0.56552
10410.400235	0.56667
10411.000236	0.56864
10411.400236	0.56957
10412.000236	0.57129
10412.500236	0.57250
10413.000236	0.57425
10413.400236	0.57620
10413.900236	0.57829
10414.400236	0.58063
10415.000236	0.58317
10415.400236	0.58457
10416.000236	0.58670
10416.400236	0.58789
10417.000236	0.58975
10417.500236	0.59083
10417.900236	0.59147
10418.500236	0.59311
10418.900236	0.59459
10420.400236	0.59832
10423.300236	0.60374
10424.700236	0.60615
10426.200236	0.60710
10427.700236	0.60759
10429.300236	0.60751
10430.800236	0.60726
10432.300236	0.60678
10434.000236	0.60573
10435.500236	0.60507
10437.100236	0.60447
10438.700236	0.60364
10440.500236	0.60332
10442.100236	0.60399
10443.800236	0.60407
10445.500236	0.60423
10447.300236	0.60476
10449.000236	0.60561
10450.800236	0.60675
10452.600236	0.60720
10454.400236	0.60919
10456.100237	0.60933
10458.100237	0.61040
10459.900237	0.61072
10461.800237	0.61090
10463.700237	0.61052
10465.600237	0.61047
10467.500237	0.60969
10469.500237	0.60817
10471.500237	0.60707
10473.500237	0.60493
10475.500237	0.60268
10477.500237	0.60024
10479.600237	0.59691
10481.700237	0.59414
10483.700237	0.59172
10485.900237	0.58842
10488.000237	0.58679
10490.100237	0.58543
10492.300237	0.58461
10494.500237	0.58394
10496.700237	0.58483
10498.900237	0.58587
10501.100238	0.58905
10503.400238	0.59132
10505.700238	0.59403
10508.000238	0.59661
10510.300238	0.59925
10512.600238	0.60202
10515.000238	0.60477
10517.300238	0.60775
10519.800238	0.61037
10522.100238	0.61270
10524.500238	0.61420
10527.000238	0.61524
10529.500238	0.61597
10532.000238	0.61589
10534.500238	0.61554
10537.100238	0.61445
10539.500238	0.61257
10542.100238	0.61125
10544.700239	0.60891
10547.300239	0.60583
10549.900239	0.60342
10552.500239	0.60040
10555.200239	0.59827
10557.800239	0.59508
10560.600239	0.59231
10563.300239	0.59075
10566.000239	0.58907
10568.700239	0.58783
10571.600239	0.58775
10574.300239	0.58745
10577.100239	0.58793
10580.000239	0.58894
10582.800239	0.59004
10585.600239	0.59176
10588.500240	0.59344
10591.400240	0.59529
10594.300240	0.59699
10597.300240	0.59878
10600.300240	0.60113
10603.200240	0.60266
10606.200240	0.60419
10609.200240	0.60480
10612.300240	0.60574
10615.300240	0.60589
10618.400240	0.60622
10621.400240	0.60574
10624.600240	0.60468
10627.600240	0.60375
10630.900240	0.60237
10634.000241	0.60069
10637.200241	0.59871
10640.400241	0.59678
10643.700241	0.59471
10646.900241	0.59266
10650.100241	0.59072
10653.400241	0.58940
10656.700241	0.58808
10660.000241	0.58636
10663.400241	0.58618
10666.700241	0.58549
10670.100241	0.58555
10673.400241	0.58497
10677.000242	0.58577
10680.300242	0.58607
10683.800242	0.58726
10687.200242	0.58776
10690.700242	0.58913
10694.200242	0.58971
10697.700242	0.59058
10701.300242	0.59114
10704.800242	0.59195
10708.400242	0.59275
10712.100242	0.59347
10715.600242	0.59362
10719.300242	0.59319
10723.000243	0.59309
10726.600243	0.59234
10730.300243	0.59176
10734.000243	0.59061
10737.700243	0.58982
10741.500243	0.58844
10745.300243	0.58732
10749.100243	0.58577
10752.900243	0.58453
10756.700243	0.58384
10760.600243	0.58259
10764.400244	0.58137
10768.200244	0.58001
10772.200244	0.57992
10776.100244	0.57896
10780.100244	0.57915
10784.000244	0.57827
10788.000244	0.57868
10791.900244	0.57834
10796.000244	0.57846
10800.000244	0.57866
10804.000244	0.57859
10808.100244	0.57903
10812.300245	0.57945
10816.300245	0.57956
10820.500245	0.57994
10824.700245	0.58033
10828.700245	0.58047
10833.000245	0.58000
10837.100245	0.58025
10841.300245	0.58021
10845.700245	0.57957
10849.900245	0.57918
10854.100246	0.57867
10858.500246	0.57748
10862.800246	0.57726
10867.100246	0.57628
10871.400246	0.57557
10875.800246	0.57487
10880.200246	0.57406
10884.600246	0.57343
10889.100246	0.57264
10893.500246	0.57177
10898.000247	0.57123
10902.500247	0.57012
10907.000247	0.57028
10911.500247	0.56968
10916.000247	0.56935
10920.500247	0.56939
10925.300247	0.56917
10929.700247	0.56839
10934.400247	0.56908
10939.000247	0.56858
10943.700248	0.56867
10948.400248	0.56884
10953.000248	0.56845
10957.800248	0.56855
10962.500248	0.56843
10967.300248	0.56847
10972.000248	0.56812
10976.800248	0.56800
10981.600248	0.56776
10986.500249	0.56722
10991.300249	0.56692
10996.100249	0.56624
11001.100249	0.56581
11005.900249	0.56510
11010.800249	0.56466
11015.700249	0.56378
11020.700249	0.56374
11025.700249	0.56272
11030.800250	0.56209
11035.700250	0.56167
11040.800250	0.56089
11045.800250	0.56079
11050.900250	0.56036
11055.900250	0.55961
11061.100250	0.55941
11066.200250	0.55923
11071.400250	0.55866
11076.500251	0.55811
11081.600251	0.55838
11086.900251	0.55722
11092.100251	0.55725
11097.400251	0.55729
11102.600251	0.55696
11107.900251	0.55757
11113.200251	0.55763
11118.500252	0.55710
11123.800252	0.55674
11129.100252	0.55642
11134.600252	0.55621
11140.000252	0.55549
11145.400252	0.55509
11150.800252	0.55475
11156.300252	0.55447
11161.700252	0.55425
11167.200253	0.55352
11172.700253	0.55291
11178.300253	0.55260
11183.800253	0.55162
11189.300253	0.55136
11194.900253	0.55087
11200.500253	0.55015
11206.100253	0.54983
11211.700254	0.54936
11217.500254	0.54879
11223.200254	0.54854
11228.800254	0.54805
11234.500254	0.54777
11240.200254	0.54765
11246.000254	0.54722
11251.800255	0.54690
11257.500255	0.54633
11263.500255	0.54599
11269.300255	0.54558
11275.000255	0.54485
11280.900255	0.54459
11286.800255	0.54457
11292.700255	0.54389
11298.500256	0.54423
11304.500256	0.54355
11310.400256	0.54357
11316.500256	0.54318
11322.500256	0.54290
11328.500256	0.54260
