# XDI/1.0
# Column.1: energy(ev)
# Column.2: transmission(au)
# Element.symbol: Nb
# Element.edge: K
# Mono.name: Si 2 2 0
# Mono.d_spacing: 1.92
# Beamline.name: FAME
# Sample.name: Nb metallic foil
# Sample.temperature: 293.0 +/- 2.0 K
# Sample.pressure: None
# Citation.doi:  https://doi.org/10.26302/SSHADE/EXPERIMENT_DT_20180117_005
# Citation.comments: Proux, Olivier (2004): Nb K edge XAS transmission of Nb metallic foil reference at ambient conditions. SSHADE/FAME (OSUG Data Center). Dataset/Spectral Data. https://doi.org/10.26302/SSHADE/EXPERIMENT_DT_20180117_005Schmitt, Bernard; Bollard, Philippe; Albert, Damien; Garenne, Alexandre; Bonal, Lydie; and the SSHADE partner's consortium (2018). SSHADE: 'Solid Spectroscopy Hosting Architecture of Databases and Expertise'. OSUG Data Center. Service/Database infrastructure. https://doi.org/10.26302/SSHADE
# ////
#---------
# energy(ev)	transmission(au)
18805.450425	-0.12478
18810.550426	-0.12500
18815.450426	-0.12458
18820.550426	-0.12372
18825.450426	-0.12334
18830.450426	-0.12335
18835.250426	-0.12395
18840.450426	-0.12403
18845.350426	-0.12454
18850.350426	-0.12361
18855.250427	-0.12370
18860.450427	-0.12549
18865.350427	-0.12568
18870.350427	-0.12524
18875.250427	-0.12379
18880.350427	-0.12423
18885.450427	-0.12452
18890.350427	-0.12550
18895.450427	-0.12505
18900.350428	-0.12463
18905.350428	-0.12410
18910.250428	-0.12346
18915.450428	-0.12254
18920.550428	-0.12160
18925.550428	-0.12086
18930.350428	-0.12005
18935.450428	-0.11918
18940.450428	-0.11641
18945.350429	-0.11477
18950.250429	-0.11178
18955.550429	-0.10726
18960.650429	-0.10133
18965.350429	-0.09408
18970.350429	-0.08117
18970.950429	-0.07948
18971.450429	-0.07740
18971.950429	-0.07523
18972.450429	-0.07371
18972.950429	-0.07193
18973.450429	-0.06832
18973.950429	-0.06544
18974.450429	-0.06302
18974.850429	-0.06136
18975.550429	-0.05767
18975.950429	-0.05415
18976.450429	-0.05063
18976.950429	-0.04649
18977.550429	-0.04183
18977.950429	-0.03706
18978.350429	-0.03159
18978.950429	-0.02504
18979.450429	-0.01762
18979.950429	-0.01051
18980.450429	-0.00222
18980.950429	0.00835
18981.350429	0.02032
18981.950429	0.03430
18982.450429	0.05190
18982.950429	0.07348
18983.450429	0.09894
18984.050429	0.13636
18984.450429	0.18046
18984.950429	0.23772
18985.450429	0.30315
18985.950429	0.36977
18986.450429	0.44118
18986.950430	0.50679
18987.450430	0.57129
18987.950430	0.61632
18988.450430	0.64590
18988.850430	0.66553
18989.450430	0.68300
18989.850430	0.70012
18990.450430	0.72157
18990.850430	0.74732
18991.450430	0.77692
18991.950430	0.81133
18992.350430	0.85169
18992.950430	0.88983
18993.450430	0.93322
18993.950430	0.97652
18994.550430	1.02554
18994.950430	1.06881
18995.450430	1.11215
18995.850430	1.15526
18996.450430	1.21359
18996.950430	1.27760
18997.450430	1.34423
18997.950430	1.40962
18998.450430	1.47925
18998.950430	1.53970
18999.450430	1.60120
18999.950430	1.66040
19000.450430	1.70829
19000.850430	1.74685
19001.450430	1.78042
19001.950430	1.80284
19002.450430	1.81462
19002.950430	1.81538
19003.450430	1.80759
19003.950430	1.78643
19004.450430	1.76153
19004.950430	1.74075
19005.450430	1.71919
19005.850430	1.69839
19006.450430	1.68120
19006.950430	1.67103
19007.450430	1.66504
19007.950430	1.66197
19008.450430	1.66404
19008.950430	1.67071
19009.450430	1.67801
19009.950430	1.68831
19010.450430	1.69783
19010.950430	1.70725
19011.450430	1.71449
19011.950430	1.72122
19012.450430	1.72610
19012.950430	1.72824
19013.450430	1.72895
19013.950430	1.72821
19014.450430	1.72709
19014.950430	1.72459
19015.450430	1.72244
19015.950430	1.72203
19016.450430	1.72216
19016.950430	1.72453
19017.450430	1.72555
19017.950430	1.73044
19018.450430	1.73655
19018.950430	1.74393
19019.350430	1.75243
19019.950430	1.76213
19020.550430	1.77036
19021.050430	1.78088
19021.450430	1.78875
19021.950430	1.79846
19022.450430	1.80725
19022.950430	1.81616
19023.450430	1.82568
19023.950430	1.83504
19024.450430	1.84540
19024.950430	1.85468
19025.450430	1.86424
19025.950430	1.87217
19026.450430	1.87834
19026.950430	1.88459
19027.450430	1.88838
19027.950430	1.88840
19028.450430	1.88645
19028.950430	1.88095
19029.450430	1.87241
19029.950430	1.86290
19030.550430	1.85303
19030.950431	1.84024
19031.450431	1.82659
19031.950431	1.80961
19032.450431	1.79334
19032.950431	1.77618
19033.450431	1.76394
19033.950431	1.75251
19034.450431	1.74084
19034.950431	1.73037
19035.450431	1.72318
19035.950431	1.71636
19036.450431	1.70987
19036.950431	1.70559
19037.450431	1.70111
19037.950431	1.69835
19038.450431	1.69509
19038.950431	1.69445
19039.450431	1.69470
19039.950431	1.69678
19040.450431	1.69833
19040.950431	1.70042
19041.450431	1.70454
19041.950431	1.70829
19042.450431	1.71298
19042.950431	1.71641
19043.350431	1.71891
19043.950431	1.72263
19044.450431	1.72571
19044.850431	1.72751
19045.450431	1.73022
19045.950431	1.72947
19046.450431	1.73184
19046.850431	1.73130
19047.450431	1.73088
19049.450431	1.72448
19050.450431	1.71905
19053.650431	1.70031
19055.250431	1.69164
19056.850431	1.68972
19058.550431	1.69448
19060.150431	1.70824
19061.750431	1.72953
19063.550431	1.75326
19065.250431	1.77329
19067.050431	1.78443
19068.750431	1.78475
19070.550431	1.77037
19072.350431	1.74857
19074.050431	1.72413
19075.950432	1.70262
19077.850432	1.68947
19079.650432	1.68509
19081.550432	1.68632
19083.250432	1.68902
19085.350432	1.69054
19087.350432	1.69138
19089.250432	1.69005
19091.250432	1.68979
19093.250432	1.69044
19095.250432	1.69564
19097.350432	1.70498
19099.450432	1.71581
19101.450432	1.72730
19103.450432	1.73505
19105.550432	1.73874
19107.850432	1.73436
19109.850432	1.72486
19112.050432	1.71087
19114.250432	1.69796
19116.350432	1.68083
19118.550432	1.66439
19120.850433	1.65083
19123.050433	1.64168
19125.450433	1.63633
19127.850433	1.63141
19130.150433	1.62831
19132.450433	1.62881
19134.850433	1.63281
19137.250433	1.63961
19139.550433	1.64591
19142.050433	1.65235
19144.350433	1.65490
19146.950433	1.65559
19149.350433	1.65383
19151.850433	1.65467
19154.350433	1.66135
19156.750433	1.67686
19159.350433	1.69464
19161.950433	1.71039
19164.550434	1.71629
19167.250434	1.71418
19169.750434	1.70307
19172.450434	1.68259
19175.150434	1.65491
19177.650434	1.62552
19180.450434	1.59723
19183.150434	1.57718
19185.950434	1.56739
19188.650434	1.56749
19191.350434	1.57243
19194.150434	1.57724
19196.950434	1.58138
19199.850434	1.58376
19202.650434	1.58850
19205.550434	1.59709
19208.450435	1.60742
19211.350435	1.62033
19214.250435	1.63344
19217.150435	1.64125
19220.150435	1.64962
19223.350435	1.65438
19226.150435	1.65520
19229.150435	1.65518
19232.250435	1.65550
19235.250435	1.65211
19238.350435	1.64527
19241.350435	1.63689
19244.750435	1.62533
19247.750435	1.60869
19250.850435	1.59265
19254.150436	1.58071
19257.150436	1.57175
19260.350436	1.56356
19263.550436	1.55614
19266.850436	1.55383
19270.150436	1.55593
19273.450436	1.56647
19276.650436	1.57468
19280.050436	1.58379
19283.450436	1.59328
19286.850436	1.59936
19290.150436	1.60524
19293.550436	1.60857
19296.950437	1.61164
19300.350437	1.61178
19303.750437	1.60910
19307.350437	1.60556
19310.750437	1.60090
19314.350437	1.59636
19317.750437	1.59509
19321.250437	1.59279
19324.950437	1.58648
19328.450437	1.57722
19332.050437	1.56821
19335.550437	1.56377
19339.150437	1.56154
19342.850438	1.55955
19346.650438	1.55612
19350.250438	1.55326
19354.050438	1.55151
19357.850438	1.55086
19361.450438	1.55346
19365.550438	1.55713
19369.250438	1.55726
19372.950438	1.55775
19376.650438	1.55640
19380.450438	1.55588
19384.450439	1.55528
19388.350439	1.55710
19392.450439	1.55948
19396.150439	1.56182
19400.150439	1.56238
19404.150439	1.56132
19408.050439	1.55811
19412.050439	1.55658
19415.950439	1.55219
19419.950439	1.54689
19424.150439	1.54223
19428.250439	1.53813
19432.450440	1.53519
19436.350440	1.53334
19440.550440	1.53106
19444.850440	1.53028
19448.850440	1.53138
19452.950440	1.53083
19457.150440	1.53068
19461.350440	1.52776
19465.750440	1.52574
19470.050440	1.52379
19474.450441	1.52281
19478.550441	1.52275
19482.950441	1.52339
19487.350441	1.52246
19491.450441	1.52178
19495.950441	1.51991
19500.250441	1.51831
19504.750441	1.51905
19509.350441	1.51946
19513.750441	1.51982
19518.050442	1.52082
19522.450442	1.52093
19527.150442	1.51951
19531.650442	1.51539
19536.150442	1.51188
19540.650442	1.50755
19545.350442	1.50217
19550.050442	1.49920
19554.650442	1.49665
19559.150442	1.49427
19563.650443	1.49237
19568.550443	1.49054
19573.250443	1.48869
19577.850443	1.48816
19582.650443	1.48685
19587.550443	1.48830
19592.250443	1.48874
19597.050443	1.48699
19601.650443	1.48628
19606.650444	1.48487
19611.450444	1.48365
19616.450444	1.48228
19621.150444	1.48063
19626.250444	1.48206
19631.150444	1.48029
19635.950444	1.47790
19640.850444	1.47671
19645.750444	1.47550
19651.050445	1.47386
19655.850445	1.47230
19660.950445	1.46908
19665.950445	1.46583
19671.150445	1.46299
19676.150445	1.46050
19681.150445	1.45666
19686.250445	1.45383
19691.650445	1.45211
19696.750446	1.45167
19701.950446	1.44971
19707.050446	1.44933
19712.550446	1.44938
19717.650446	1.44886
19722.750446	1.44865
19728.050446	1.44686
19733.550446	1.44648
19738.850447	1.44570
19744.150447	1.44314
19749.550447	1.44375
19754.950447	1.44078
19760.350447	1.43971
19765.650447	1.43695
19771.250447	1.43390
19776.750447	1.43165
19782.150447	1.43048
19787.450448	1.42768
19792.850448	1.42594
19798.450448	1.42327
19803.850448	1.42202
19809.450448	1.41963
19815.350448	1.41927
19820.850448	1.41819
19826.450449	1.41451
19832.050449	1.41456
19838.050449	1.41123
19843.550449	1.40920
19849.250449	1.41009
19854.850449	1.40943
