# XDI/1.0
# Column.1: energy(ev)
# Column.2: transmission(au)
# Element.symbol: Pt
# Element.edge: L3
# Mono.name: Si 2 2 0
# Mono.d_spacing: 1.92
# Beamline.name: FAME
# Sample.name: Pellet of PtO2 mixed with BN
# Sample.temperature: 25.0 +/- -268.1 °C
# Sample.pressure: 1.0 bar
# Citation.doi:  https://doi.org/10.26302/SSHADE/EXPERIMENT_CL_20210211_001
# Citation.comments: Laskar, Clément; Pokrovski, Gleb; Bazarkina, Elena; Hazemann, Jean-Louis (2021): Pt L3 edge XAS transmission and XAS fluorescence of platinum hydrogensulfide complexes in geological fluids (stability, structure and their impact on ore deposit formation). SSHADE/FAME (OSUG Data Center). Dataset/Spectral Data. https://doi.org/10.26302/SSHADE/EXPERIMENT_CL_20210211_001Schmitt, Bernard; Bollard, Philippe; Albert, Damien; Garenne, Alexandre; Bonal, Lydie; and the SSHADE partner's consortium (2018). SSHADE: 'Solid Spectroscopy Hosting Architecture of Databases and Expertise'. OSUG Data Center. Service/Database infrastructure. https://doi.org/10.26302/SSHADE
# ////
#---------
# energy(ev)	transmission(au)
11447.495000	0.96879
11451.095000	0.96799
11453.295000	0.96730
11455.395000	0.96665
11457.395000	0.96608
11459.495000	0.96572
11461.495000	0.96534
11463.395000	0.96463
11465.495000	0.96369
11467.395000	0.96343
11469.395000	0.96291
11471.495000	0.96242
11473.495000	0.96181
11475.495000	0.96165
11477.395000	0.96147
11479.495000	0.96078
11481.495000	0.96003
11483.395000	0.95956
11485.495000	0.95921
11487.495000	0.95880
11489.495000	0.95834
11491.395000	0.95773
11493.495000	0.95679
11495.495000	0.95668
11497.395000	0.95659
11499.595000	0.95623
11501.495000	0.95591
11503.495000	0.95497
11505.495000	0.95419
11507.495000	0.95428
11509.495000	0.95407
11511.495000	0.95382
11513.595000	0.95363
11515.595000	0.95313
11517.495000	0.95273
11519.595000	0.95275
11521.595000	0.95278
11523.595000	0.95273
11525.495000	0.95269
11527.695000	0.95310
11529.495000	0.95291
11531.595000	0.95299
11533.595000	0.95337
11535.595000	0.95424
11537.595000	0.95481
11539.595000	0.95582
11541.695000	0.95768
11543.595000	0.96017
11545.495000	0.96301
11547.695000	0.96648
11549.595000	0.96928
11550.095000	0.97000
11550.295000	0.97050
11550.495000	0.97102
11550.795000	0.97205
11551.095000	0.97282
11551.395000	0.97368
11551.695000	0.97468
11551.995000	0.97550
11552.295000	0.97641
11552.595000	0.97751
11552.895000	0.97882
11553.195000	0.98000
11553.495000	0.98150
11553.795000	0.98330
11554.095000	0.98478
11554.395000	0.98629
11554.695000	0.98787
11554.995000	0.98968
11555.295000	0.99172
11555.595000	0.99373
11555.895000	0.99599
11556.195000	0.99861
11556.495000	1.00111
11556.795000	1.00386
11557.095000	1.00708
11557.395000	1.01072
11557.695000	1.01440
11557.995000	1.01820
11558.295000	1.02279
11558.595000	1.02737
11558.895000	1.03234
11559.195000	1.03794
11559.495000	1.04425
11559.795000	1.05103
11560.095000	1.05849
11560.395000	1.06718
11560.695000	1.07604
11560.995000	1.08578
11561.295000	1.09723
11561.595000	1.10921
11561.895000	1.12205
11562.195000	1.13736
11562.495000	1.15416
11562.795000	1.17330
11563.095000	1.19460
11563.395000	1.21874
11563.695000	1.24664
11563.995000	1.27732
11564.295000	1.31141
11564.595000	1.35116
11564.895000	1.39384
11565.195000	1.44098
11565.495000	1.49159
11565.795000	1.54552
11566.095000	1.60204
11566.395000	1.65971
11566.695000	1.71541
11566.995000	1.76700
11567.295000	1.80809
11567.595000	1.83996
11567.895000	1.85788
11568.195000	1.86072
11568.495000	1.85081
11568.795000	1.82930
11569.095000	1.79818
11569.395000	1.75981
11569.695000	1.71625
11569.995000	1.66979
11570.295000	1.62357
11570.595000	1.57917
11570.895000	1.53500
11571.195000	1.49454
11571.495000	1.45784
11571.795000	1.42483
11572.095000	1.39608
11572.395000	1.36938
11572.695000	1.34532
11572.995000	1.32495
11573.295000	1.30767
11573.595000	1.29335
11573.895000	1.28018
11574.195000	1.26923
11574.495000	1.26008
11574.795000	1.25283
11575.095000	1.24685
11575.395000	1.24197
11575.695000	1.23780
11575.995000	1.23483
11576.295000	1.23268
11576.595000	1.23065
11576.895000	1.22902
11577.195000	1.22778
11577.495000	1.22712
11577.795000	1.22689
11578.095000	1.22659
11578.395000	1.22667
11578.695000	1.22684
11578.995000	1.22707
11579.295000	1.22754
11579.595000	1.22799
11579.895000	1.22917
11580.195000	1.23053
11580.495000	1.23173
11580.795000	1.23314
11581.095000	1.23466
11581.395000	1.23548
11581.695000	1.23693
11581.995000	1.23826
11582.295000	1.23909
11582.595000	1.23979
11582.895000	1.24043
11583.195000	1.24073
11583.495000	1.24107
11583.795000	1.24136
11584.095000	1.24192
11584.395000	1.24246
11584.695000	1.24346
11584.995000	1.24423
11585.295000	1.24487
11585.595000	1.24598
11587.395000	1.25986
11588.495000	1.27013
11590.295000	1.28459
11591.495000	1.29002
11592.395000	1.29149
11593.495000	1.29179
11594.595000	1.29234
11595.695000	1.29396
11596.795000	1.29660
11597.895000	1.30056
11598.995000	1.30482
11600.195000	1.30951
11601.395000	1.31436
11602.495000	1.31863
11603.895000	1.32470
11604.995000	1.33060
11606.295000	1.33869
11607.595000	1.34840
11608.895000	1.35859
11610.195000	1.36877
11611.595000	1.37927
11612.895000	1.38619
11614.195000	1.38903
11615.595000	1.38680
11617.095000	1.37920
11618.495000	1.36922
11619.895000	1.35812
11621.395000	1.34635
11622.895000	1.33471
11624.495000	1.32407
11625.895000	1.31542
11627.395000	1.30759
11628.995000	1.30056
11630.595000	1.29558
11632.295000	1.29240
11633.795000	1.29081
11635.495000	1.29075
11637.095000	1.29135
11638.895000	1.29250
11640.495000	1.29385
11642.195000	1.29513
11643.895000	1.29578
11645.795000	1.29664
11647.395000	1.29676
11649.295000	1.29664
11650.995000	1.29651
11652.995000	1.29635
11654.695000	1.29562
11656.595000	1.29524
11658.395000	1.29561
11660.395000	1.29621
11662.295000	1.29721
11664.295000	1.29889
11666.195000	1.30045
11668.195000	1.30255
11670.095000	1.30469
11672.195000	1.30749
11674.195000	1.31017
11676.295000	1.31324
11678.295000	1.31549
11680.495000	1.31783
11682.495000	1.31884
11684.695000	1.31911
11686.795000	1.31791
11688.995000	1.31594
11691.195000	1.31345
11693.395000	1.31063
11695.695000	1.30780
11697.795000	1.30473
11699.995000	1.30232
11702.395000	1.29974
11704.695000	1.29689
11706.995000	1.29497
11709.395000	1.29301
11711.695000	1.29169
11713.995000	1.28995
11716.495000	1.28812
11718.895000	1.28641
11721.295000	1.28480
11723.795000	1.28298
11726.195000	1.28129
11728.595000	1.28062
11731.295000	1.27998
11733.695000	1.27987
11736.295000	1.28006
11738.895000	1.28047
11741.395000	1.28044
11743.995000	1.28094
11746.695000	1.28165
11749.295000	1.28254
11751.995000	1.28379
11754.595000	1.28500
11757.195000	1.28648
11759.995000	1.28786
11762.695000	1.28861
11765.495000	1.28912
11768.295000	1.28962
11770.995000	1.28926
11773.895000	1.28835
11776.695000	1.28683
11779.495000	1.28482
11782.495000	1.28232
11785.295000	1.27971
11788.195000	1.27740
11791.095000	1.27576
11793.995000	1.27421
11797.095000	1.27274
11799.895000	1.27137
11802.995000	1.27009
11805.995000	1.26931
11808.995000	1.26839
11812.095000	1.26746
11815.095000	1.26667
11818.195000	1.26657
11821.295000	1.26627
11824.495000	1.26595
11827.595000	1.26526
11830.695000	1.26407
11833.895000	1.26303
11837.095000	1.26189
11840.395000	1.25994
11843.495000	1.25813
11846.795000	1.25579
11850.095000	1.25394
11853.395000	1.25349
11856.695000	1.25281
11859.995000	1.25232
11863.395000	1.25253
11866.795000	1.25262
11870.195000	1.25222
11873.495000	1.25197
11876.995000	1.25180
11880.495000	1.25157
11883.995000	1.25171
11887.395000	1.25136
11890.895000	1.25116
11894.495000	1.25085
11898.095000	1.25043
11901.595000	1.24978
11905.095000	1.24887
11908.795000	1.24728
11912.495000	1.24549
11915.995000	1.24321
11919.695000	1.24119
11923.395000	1.23874
11927.095000	1.23658
11930.695000	1.23484
11934.495000	1.23392
11938.295000	1.23283
11942.095000	1.23179
11945.795000	1.23111
11949.595000	1.23058
11953.395000	1.22976
11957.295000	1.22908
11961.095000	1.22799
11964.995000	1.22749
11968.895000	1.22704
11972.895000	1.22656
11976.695000	1.22609
11980.795000	1.22514
11984.695000	1.22372
11988.795000	1.22216
11992.695000	1.22073
11996.795000	1.21871
12000.895000	1.21764
12004.895000	1.21601
12008.995000	1.21520
12013.195000	1.21413
12017.295000	1.21307
12021.295000	1.21280
12025.595000	1.21142
12029.695000	1.21096
12033.995000	1.21006
12038.095000	1.20955
12042.495000	1.20919
12046.695000	1.20827
12050.895000	1.20744
12055.295000	1.20669
12059.495000	1.20521
12063.895000	1.20395
12068.195000	1.20279
12072.695000	1.20088
12077.095000	1.19841
12081.395000	1.19661
12085.895000	1.19493
12090.295000	1.19296
12094.795000	1.19075
12099.195000	1.18946
12103.795000	1.18872
12108.295000	1.18723
12112.795000	1.18597
12117.395000	1.18457
12121.995000	1.18350
12126.495000	1.18306
12131.195000	1.18240
12135.795000	1.18179
12140.495000	1.18117
12145.095000	1.18045
12149.895000	1.17966
12154.595000	1.17875
12159.195000	1.17739
12164.095000	1.17608
12168.795000	1.17458
12173.495000	1.17310
12178.395000	1.17124
12183.195000	1.16967
12188.095000	1.16816
12192.895000	1.16657
12197.795000	1.16540
12202.695000	1.16437
12207.595000	1.16334
12212.595000	1.16229
12217.495000	1.16126
12222.395000	1.16023
12227.595000	1.15913
12232.495000	1.15810
12237.395000	1.15707
12242.695000	1.15596
12247.695000	1.15491
12252.695000	1.15386
12257.895000	1.15276
12263.095000	1.15167
12267.995000	1.15064
12273.395000	1.14950
12278.495000	1.14843
12283.595000	1.14736
12288.995000	1.14623
12294.195000	1.14513
12299.395000	1.14404
12304.795000	1.14290
12309.995000	1.14181
12315.195000	1.14072
12320.795000	1.13954
12326.095000	1.13843
12331.295000	1.13733
12336.895000	1.13616
12342.195000	1.13504
12347.495000	1.13393
12353.195000	1.13273
12358.595000	1.13160
12363.995000	1.13046
12369.595000	1.12928
12375.095000	1.12813
12380.595000	1.12697
12386.195000	1.12579
12391.795000	1.12462
12397.395000	1.12344
12402.995000	1.12226
12408.595000	1.12109
12414.295000	1.11989
