# XDI/1.0
# Column.1: energy(ev)
# Column.2: fluorescence_emission(au)
# Element.symbol: Pt
# Element.edge: L3
# Mono.name: Si 2 2 0
# Mono.d_spacing: 1.92
# Beamline.name: FAME
# Sample.name: Pellet of K2PtCl6 mixed with BN
# Sample.temperature: 25.0 +/- -268.1 °C
# Sample.pressure: 1.0 bar
# Citation.doi:  https://doi.org/10.26302/SSHADE/EXPERIMENT_GP_20181107_001
# Citation.comments: Laskar, Clément; Pokrovski, Gleb; Bazarkina, Elena; Hazemann, Jean-Louis (2018): Pt L3 edge XAS HERFD and XAS transmission of platinum hydrogensulfide complexes in geological fluids (impact of sulfur on the transfer of noble metals by hydrothermal fluids). SSHADE/FAME (OSUG Data Center). Dataset/Spectral Data. https://doi.org/10.26302/SSHADE/EXPERIMENT_GP_20181107_001Schmitt, Bernard; Bollard, Philippe; Albert, Damien; Garenne, Alexandre; Bonal, Lydie; and the SSHADE partner's consortium (2018). SSHADE: 'Solid Spectroscopy Hosting Architecture of Databases and Expertise'. OSUG Data Center. Service/Database infrastructure. https://doi.org/10.26302/SSHADE
# ////
#---------
# energy(ev)	fluorescence_emission(au)
11451.500000	4.99870
11457.700000	4.92669
11462.900000	4.89465
11467.900000	4.82045
11473.000000	4.85972
11478.100000	4.82957
11483.100000	5.02102
11488.200000	4.99002
11493.100000	4.78996
11498.200000	4.97942
11503.200000	5.01694
11508.200000	5.02448
11513.300000	5.03618
11518.300000	4.96132
11523.200000	5.03033
11528.300000	5.04284
11533.300000	5.09413
11538.300000	5.42276
11543.300000	5.60702
11548.200000	6.61088
11553.400000	9.18362
11553.700000	9.60627
11553.800000	9.31422
11554.200000	10.51460
11554.500000	10.39374
11554.800000	11.19902
11555.100000	11.48478
11555.400000	12.23421
11555.700000	13.00583
11556.000000	13.65252
11556.300000	14.58350
11556.600000	15.69666
11556.900000	16.45385
11557.200000	17.33815
11557.500000	19.36782
11557.800000	20.62807
11558.100000	22.60449
11558.400000	24.67289
11558.700000	27.51408
11559.000000	29.74352
11559.300000	32.26881
11559.600000	36.94453
11559.900000	41.06321
11560.200000	46.33792
11560.500000	52.37040
11560.800000	62.79298
11561.100000	72.66332
11561.400000	84.97174
11561.700000	100.87149
11562.000000	122.06522
11562.300000	145.47699
11562.600000	172.92559
11562.900000	213.56157
11563.200000	254.61923
11563.500000	331.36655
11563.800000	437.66923
11564.100000	561.12577
11564.400000	739.53574
11564.700000	998.20126
11565.000000	1367.08920
11565.300000	1879.99450
11565.600000	2617.00050
11565.900000	3521.79540
11566.200000	4674.52060
11566.500000	6014.02080
11566.800000	7758.73580
11567.100000	9656.79430
11567.400000	11513.87200
11567.700000	12839.06600
11568.000000	13278.77900
11568.300000	12515.25700
11568.600000	10836.40600
11568.900000	8581.00610
11569.200000	6541.33600
11569.500000	4828.21760
11569.800000	3688.20320
11570.100000	2689.43010
11570.400000	2058.30680
11570.700000	1637.12530
11571.000000	1339.82680
11571.300000	1082.94590
11571.600000	918.76951
11571.900000	813.22064
11572.200000	766.18244
11572.500000	769.62126
11572.800000	814.11967
11573.100000	898.68197
11574.000000	1202.92130
11575.000000	1542.72940
11576.100000	2176.83410
11577.100000	2437.14110
11578.100000	2302.40720
11579.100000	2427.49970
11580.100000	2492.29930
11581.100000	2415.70910
11582.100000	2330.76040
11583.100000	2247.85120
11584.100000	2168.70020
11585.100000	2069.38720
11586.100000	1967.67960
11587.100000	1906.63270
11588.100000	1911.21820
11589.100000	1951.89420
11590.000000	2003.82360
11591.100000	2056.00180
11592.100000	2099.30410
11593.100000	2137.99800
11594.100000	2192.73170
11595.100000	2257.68320
11596.100000	2317.80870
11597.100000	2361.12170
11598.100000	2386.18470
11599.100000	2383.57800
11600.100000	2378.95700
11601.100000	2380.00670
11602.100000	2393.50290
11603.000000	2406.24770
11604.100000	2419.68260
11605.100000	2428.15740
11606.100000	2432.25610
11607.100000	2441.98070
11608.100000	2447.25670
11609.100000	2478.29480
11610.100000	2507.15570
11611.100000	2561.85430
11612.100000	2610.35330
11614.000000	2692.94080
11616.100000	2730.38160
11618.000000	2738.52970
11620.200000	2735.61040
11622.200000	2674.09880
11624.100000	2558.10530
11626.100000	2442.59570
11628.100000	2346.39010
11630.100000	2274.53350
11632.000000	2236.96160
11634.100000	2225.75240
11636.200000	2223.32150
11638.100000	2222.16880
11640.100000	2227.11280
11642.100000	2230.08010
11644.100000	2226.21330
11646.100000	2214.29920
11648.200000	2217.19320
11650.100000	2218.06940
11652.100000	2228.97870
11655.100000	2237.57180
11655.800000	2250.57690
11659.300000	2288.00660
11661.300000	2309.95940
11663.200000	2337.14760
11665.100000	2365.07070
11667.000000	2399.04050
11669.000000	2440.71950
11670.900000	2485.08250
11672.900000	2530.65810
11674.900000	2566.92430
11676.900000	2590.31850
11679.100000	2594.86330
11681.000000	2584.24890
11683.100000	2554.01110
11685.200000	2502.46570
11687.300000	2441.75590
11689.500000	2396.58930
11691.700000	2346.86040
11693.900000	2315.88480
11696.000000	2295.45500
11698.200000	2276.43630
11700.500000	2262.99060
11702.700000	2254.76810
11705.000000	2252.15120
11707.300000	2251.79330
11709.600000	2254.01140
11711.900000	2255.95640
11714.300000	2251.31540
11716.600000	2255.06110
11719.000000	2257.20400
11721.500000	2260.56520
11723.800000	2265.26270
11726.300000	2276.23880
11728.800000	2286.99770
11731.100000	2297.27220
11733.700000	2314.83090
11736.300000	2336.05250
11738.700000	2355.23190
11741.300000	2378.21060
11743.900000	2394.94310
11746.400000	2420.66790
11749.100000	2436.19420
11751.700000	2447.35450
11754.400000	2441.94740
11757.000000	2435.55110
11759.600000	2432.63290
11762.400000	2413.03560
11765.200000	2403.06480
11767.900000	2380.93150
11770.600000	2366.83440
11773.400000	2346.54680
11776.200000	2333.11950
11779.100000	2322.55380
11781.800000	2309.45690
11784.700000	2301.10570
11787.600000	2292.54680
11790.500000	2286.28110
11793.400000	2285.11330
11796.300000	2274.28690
11799.200000	2273.49040
11802.200000	2269.76000
11805.200000	2276.32830
11808.300000	2273.62200
11811.200000	2270.56920
11814.300000	2273.01310
11817.300000	2280.99620
11820.400000	2291.21310
11823.600000	2297.99250
11826.700000	2317.03250
11829.800000	2328.46650
11832.900000	2337.32210
11836.200000	2349.06410
11839.300000	2358.75230
11842.500000	2360.96230
11845.700000	2354.92800
11849.000000	2354.95180
11852.400000	2351.49000
11855.600000	2350.33260
11858.900000	2347.72930
11862.200000	2335.57100
11865.600000	2335.07970
11868.900000	2326.37100
11872.300000	2315.72700
11875.600000	2306.09280
11879.100000	2302.77540
11882.600000	2292.14570
11886.000000	2290.96920
11889.500000	2278.73250
11893.000000	2277.37500
11896.600000	2272.15490
11900.000000	2269.74720
11903.600000	2261.39280
11907.200000	2265.04530
11910.800000	2262.23200
11914.400000	2262.71700
11918.000000	2261.44580
11921.600000	2266.50490
11925.400000	2266.13380
11929.000000	2271.89250
11932.700000	2273.63810
11936.400000	2281.00350
11940.200000	2299.35740
11943.900000	2298.22490
11947.700000	2296.57340
11951.500000	2297.70570
11955.400000	2299.72620
11959.200000	2295.62940
11963.000000	2297.98520
11966.900000	2300.36460
11970.900000	2296.41500
11974.700000	2294.95760
11978.600000	2283.74880
11982.600000	2281.99180
11986.600000	2274.95710
11990.500000	2270.83750
11994.500000	2267.89990
11998.600000	2257.48140
12002.600000	2255.78510
12006.700000	2248.32980
12010.700000	2244.29890
12014.900000	2241.05670
12019.000000	2234.70150
12023.100000	2236.44790
12027.200000	2238.69660
12031.500000	2228.40690
12035.600000	2235.36180
12039.800000	2237.45550
12044.100000	2232.84210
12048.300000	2232.38110
12052.600000	2234.33760
12056.800000	2233.34020
12061.200000	2235.40790
12065.500000	2231.23150
12069.800000	2239.78950
12074.300000	2242.31030
12078.600000	2239.32730
12083.000000	2240.43530
12087.400000	2240.25920
12091.900000	2235.74970
12096.300000	2236.15940
12100.800000	2230.97350
12105.400000	2229.12940
12109.800000	2228.58670
12114.300000	2227.96560
12118.900000	2219.81790
12123.500000	2217.72310
12128.100000	2213.41710
12132.600000	2208.28890
12137.300000	2205.49070
12141.900000	2203.15410
12146.500000	2199.24330
12151.400000	2198.97010
12156.000000	2193.95140
12160.700000	2188.11140
12165.500000	2187.00990
12170.200000	2184.58510
12175.000000	2187.65710
12179.800000	2184.64830
12184.700000	2183.06950
12189.500000	2178.88390
12194.300000	2182.46180
12199.200000	2181.95710
12204.100000	2181.24670
12209.000000	2182.78830
12214.000000	2185.48480
12218.800000	2177.88080
12223.800000	2176.06270
12228.900000	2173.77170
12233.800000	2174.84330
12238.800000	2169.35180
12244.000000	2168.70650
12249.000000	2161.02640
12254.000000	2160.25650
12259.200000	2163.13040
12264.300000	2164.23650
12269.400000	2155.36540
12274.600000	2152.16240
12279.700000	2150.19560
12284.900000	2142.97190
12290.200000	2138.55740
12295.400000	2133.51590
12300.600000	2131.96020
12306.000000	2133.64570
