# XDI/1.0
# Column.1: energy(ev)
# Column.2: fluorescence_emission(au)
# Element.symbol: Pt
# Element.edge: L3
# Mono.name: Si 2 2 0
# Mono.d_spacing: 1.92
# Beamline.name: FAME
# Sample.name: H2PtCl6 aq solution 0.007m + 0.616m HCl + 0.004m KBr
# Sample.temperature: 30.0 +/- 5.0 °C
# Sample.pressure: 600.0 bar
# Citation.doi:  https://doi.org/10.26302/SSHADE/EXPERIMENT_GP_20180208_001
# Citation.comments: Pokrovski, Gleb; Hazemann, Jean-Louis (2018): Pt L3 edge XAS fluorescence and XAS transmission of Aqueous platinum chloride soutions at 600-700 nars and 30°C. SSHADE/FAME (OSUG Data Center). Dataset/Spectral Data. https://doi.org/10.26302/SSHADE/EXPERIMENT_GP_20180208_001Schmitt, Bernard; Bollard, Philippe; Albert, Damien; Garenne, Alexandre; Bonal, Lydie; and the SSHADE partner's consortium (2018). SSHADE: 'Solid Spectroscopy Hosting Architecture of Databases and Expertise'. OSUG Data Center. Service/Database infrastructure. https://doi.org/10.26302/SSHADE
# ////
#---------
# energy(ev)	fluorescence_emission(au)
11446.900000	0.01210
11450.200000	0.01218
11452.400000	0.01228
11454.400000	0.01232
11456.400000	0.01243
11458.500000	0.01247
11460.500000	0.01240
11462.400000	0.01249
11464.500000	0.01255
11466.500000	0.01266
11468.400000	0.01271
11470.500000	0.01273
11472.500000	0.01287
11474.500000	0.01277
11476.400000	0.01297
11478.500000	0.01306
11480.400000	0.01307
11482.400000	0.01315
11484.500000	0.01326
11486.500000	0.01343
11488.400000	0.01350
11490.400000	0.01349
11492.500000	0.01372
11494.500000	0.01390
11496.500000	0.01400
11498.500000	0.01396
11500.500000	0.01418
11502.500000	0.01424
11504.500000	0.01454
11506.500000	0.01466
11508.500000	0.01489
11510.500000	0.01506
11512.600000	0.01530
11514.500000	0.01551
11516.500000	0.01583
11518.500000	0.01592
11520.600000	0.01632
11522.600000	0.01668
11524.600000	0.01713
11526.700000	0.01758
11528.600000	0.01792
11530.600000	0.01842
11532.600000	0.01908
11534.600000	0.01972
11536.600000	0.02053
11538.600000	0.02154
11540.700000	0.02262
11542.600000	0.02399
11544.500000	0.02569
11546.600000	0.02798
11548.600000	0.03035
11549.200000	0.03134
11549.700000	0.03207
11550.100000	0.03278
11550.600000	0.03381
11551.100000	0.03474
11551.600000	0.03590
11552.100000	0.03710
11552.600000	0.03854
11553.100000	0.03979
11553.600000	0.04142
11554.100000	0.04305
11554.600000	0.04491
11555.100000	0.04690
11555.600000	0.04931
11556.100000	0.05173
11556.600000	0.05462
11557.100000	0.05785
11557.600000	0.06145
11558.100000	0.06574
11558.600000	0.07052
11559.100000	0.07593
11559.600000	0.08248
11560.100000	0.08945
11560.600000	0.09727
11561.100000	0.10694
11561.600000	0.11846
11562.100000	0.13152
11562.600000	0.14868
11563.100000	0.16945
11563.600000	0.19465
11564.100000	0.22472
11564.600000	0.26182
11565.100000	0.30543
11565.600000	0.35511
11566.100000	0.40952
11566.600000	0.46318
11567.100000	0.50418
11567.600000	0.53308
11568.100000	0.54385
11568.600000	0.53242
11569.100000	0.50262
11569.600000	0.45997
11570.100000	0.41437
11570.600000	0.36726
11571.100000	0.32895
11571.600000	0.29704
11572.100000	0.27294
11572.600000	0.25572
11573.100000	0.24427
11573.600000	0.23779
11574.100000	0.23506
11574.600000	0.23471
11575.100000	0.23527
11575.600000	0.23777
11576.100000	0.24045
11576.600000	0.24397
11577.100000	0.24793
11577.600000	0.25158
11578.100000	0.25385
11578.600000	0.25584
11579.100000	0.25721
11579.600000	0.25870
11580.100000	0.25876
11580.600000	0.25860
11581.100000	0.25756
11581.600000	0.25638
11582.100000	0.25426
11582.600000	0.25273
11583.100000	0.25009
11583.600000	0.24808
11584.100000	0.24492
11584.600000	0.24264
11585.500000	0.23987
11587.300000	0.23583
11588.500000	0.23533
11589.400000	0.23598
11590.400000	0.23722
11591.400000	0.23919
11592.500000	0.24244
11593.500000	0.24531
11594.700000	0.24986
11595.800000	0.25383
11596.900000	0.25878
11598.000000	0.26269
11599.200000	0.26575
11600.400000	0.26841
11601.600000	0.26984
11602.800000	0.27140
11604.000000	0.27171
11605.300000	0.27262
11606.600000	0.27314
11607.900000	0.27436
11609.300000	0.27693
11610.500000	0.27934
11611.900000	0.28272
11613.300000	0.28657
11614.600000	0.28974
11616.100000	0.29230
11617.500000	0.29378
11618.900000	0.29445
11620.400000	0.29299
11621.900000	0.29003
11623.400000	0.28623
11625.000000	0.28093
11626.400000	0.27611
11628.000000	0.27075
11629.600000	0.26630
11631.300000	0.26281
11632.800000	0.25994
11634.500000	0.25783
11636.100000	0.25538
11637.900000	0.25449
11639.500000	0.25413
11641.200000	0.25389
11642.900000	0.25406
11644.800000	0.25481
11646.400000	0.25542
11648.300000	0.25617
11650.000000	0.25710
11652.000000	0.25814
11653.700000	0.25893
11655.600000	0.25979
11657.400000	0.26082
11659.400000	0.26254
11661.300000	0.26435
11663.200000	0.26631
11665.200000	0.26877
11667.200000	0.27196
11669.100000	0.27537
11671.200000	0.27839
11673.200000	0.28189
11675.300000	0.28406
11677.300000	0.28632
11679.500000	0.28680
11681.600000	0.28601
11683.700000	0.28371
11685.800000	0.28024
11688.000000	0.27631
11690.100000	0.27262
11692.400000	0.26913
11694.700000	0.26646
11696.900000	0.26417
11699.000000	0.26271
11701.400000	0.26119
11703.600000	0.26064
11706.000000	0.25996
11708.400000	0.26029
11710.700000	0.26003
11713.000000	0.26023
11715.400000	0.26115
11717.800000	0.26069
11720.300000	0.26131
11722.800000	0.26227
11725.200000	0.26296
11727.600000	0.26381
11730.200000	0.26510
11732.700000	0.26667
11735.300000	0.26831
11737.900000	0.27009
11740.500000	0.27179
11742.800000	0.27366
11745.600000	0.27598
11748.300000	0.27716
11751.000000	0.27849
11753.600000	0.27902
11756.200000	0.27869
11759.000000	0.27861
11761.700000	0.27724
11764.500000	0.27603
11767.300000	0.27463
11770.000000	0.27328
11772.800000	0.27181
11775.600000	0.27023
11778.500000	0.26922
11781.400000	0.26785
11784.200000	0.26762
11787.100000	0.26652
11790.000000	0.26583
11793.000000	0.26566
11796.000000	0.26435
11798.900000	0.26486
11801.900000	0.26449
11804.900000	0.26407
11807.900000	0.26441
11811.100000	0.26493
11814.000000	0.26552
11817.200000	0.26577
11820.300000	0.26716
11823.500000	0.26800
11826.600000	0.26920
11829.700000	0.27066
11833.000000	0.27184
11836.100000	0.27263
11839.400000	0.27358
11842.600000	0.27426
11845.900000	0.27434
11849.200000	0.27436
11852.500000	0.27363
11855.700000	0.27372
11859.000000	0.27251
11862.500000	0.27229
11865.800000	0.27129
11869.300000	0.27123
11872.600000	0.27009
11876.100000	0.26922
11879.500000	0.26835
11883.000000	0.26807
11886.400000	0.26726
11890.000000	0.26710
11893.500000	0.26635
11897.100000	0.26609
11900.600000	0.26575
11904.200000	0.26545
11907.800000	0.26589
11911.400000	0.26574
11915.000000	0.26541
11918.700000	0.26626
11922.400000	0.26665
11926.100000	0.26673
11929.700000	0.26717
11933.500000	0.26774
11937.300000	0.26849
11941.100000	0.26945
11944.800000	0.26922
11948.600000	0.26997
11952.500000	0.27064
11956.400000	0.27036
11960.100000	0.27057
11964.000000	0.27023
11967.900000	0.27001
11971.900000	0.26984
11975.700000	0.26953
11979.800000	0.26862
11983.700000	0.26905
11987.800000	0.26769
11991.700000	0.26778
11995.800000	0.26694
11999.900000	0.26659
12003.900000	0.26591
12007.900000	0.26584
12012.200000	0.26592
12016.300000	0.26590
12020.300000	0.26486
12024.600000	0.26470
12028.700000	0.26532
12033.000000	0.26461
12037.100000	0.26514
12041.400000	0.26477
12045.700000	0.26567
12049.900000	0.26567
12054.200000	0.26563
12058.600000	0.26585
12062.900000	0.26640
12067.100000	0.26657
12071.700000	0.26662
12076.100000	0.26672
12080.400000	0.26601
12084.800000	0.26643
12089.300000	0.26690
12093.800000	0.26666
12098.200000	0.26599
12102.800000	0.26634
12107.300000	0.26655
12111.700000	0.26570
12116.400000	0.26538
12120.900000	0.26547
12125.600000	0.26465
12130.200000	0.26476
12134.800000	0.26413
12139.500000	0.26414
12144.100000	0.26358
12148.900000	0.26333
12153.600000	0.26316
12158.200000	0.26289
12163.100000	0.26308
12167.800000	0.26282
12172.500000	0.26289
12177.400000	0.26299
12182.200000	0.26266
12187.100000	0.26248
12192.000000	0.26290
12196.800000	0.26252
12201.700000	0.26273
12206.600000	0.26270
12211.600000	0.26276
12216.500000	0.26275
12221.500000	0.26262
12226.600000	0.26300
12231.600000	0.26277
12236.500000	0.26263
12241.700000	0.26236
12246.700000	0.26191
12251.700000	0.26207
12257.000000	0.26156
12262.100000	0.26193
12267.100000	0.26145
12272.400000	0.26143
12277.500000	0.26107
12282.600000	0.26073
12288.000000	0.26050
12293.200000	0.26035
12298.400000	0.26029
12303.800000	0.26011
