# XDI/1.0
# Column.1: energy(ev)
# Column.2: transmission(au)
# Element.symbol: Pt
# Element.edge: L3
# Mono.name: Si 2 2 0
# Mono.d_spacing: 1.92
# Beamline.name: FAME
# Sample.name: Pellet of PtS2 mixed with BN
# Sample.temperature: 25.0 +/- -268.1 °C
# Sample.pressure: 1.0 bar
# Citation.doi:  https://doi.org/10.26302/SSHADE/EXPERIMENT_CL_20210211_001
# Citation.comments: Laskar, Clément; Pokrovski, Gleb; Bazarkina, Elena; Hazemann, Jean-Louis (2021): Pt L3 edge XAS transmission and XAS fluorescence of platinum hydrogensulfide complexes in geological fluids (stability, structure and their impact on ore deposit formation). SSHADE/FAME (OSUG Data Center). Dataset/Spectral Data. https://doi.org/10.26302/SSHADE/EXPERIMENT_CL_20210211_001Schmitt, Bernard; Bollard, Philippe; Albert, Damien; Garenne, Alexandre; Bonal, Lydie; and the SSHADE partner's consortium (2018). SSHADE: 'Solid Spectroscopy Hosting Architecture of Databases and Expertise'. OSUG Data Center. Service/Database infrastructure. https://doi.org/10.26302/SSHADE
# ////
#---------
# energy(ev)	transmission(au)
11447.495000	0.96658
11451.095000	0.96656
11453.295000	0.96647
11455.395000	0.96524
11457.395000	0.96472
11459.495000	0.96453
11461.495000	0.96401
11463.395000	0.96321
11465.495000	0.96232
11467.395000	0.96257
11469.395000	0.96242
11471.495000	0.96136
11473.495000	0.96074
11475.495000	0.96056
11477.395000	0.95936
11479.495000	0.95863
11481.495000	0.95843
11483.395000	0.95858
11485.495000	0.95813
11487.495000	0.95741
11489.495000	0.95721
11491.395000	0.95652
11493.495000	0.95580
11495.495000	0.95551
11497.395000	0.95551
11499.595000	0.95502
11501.495000	0.95460
11503.495000	0.95458
11505.495000	0.95405
11507.495000	0.95382
11509.495000	0.95360
11511.495000	0.95314
11513.595000	0.95205
11515.595000	0.95170
11517.495000	0.95148
11519.595000	0.95159
11521.595000	0.95175
11523.595000	0.95191
11525.495000	0.95137
11527.695000	0.95129
11529.495000	0.95154
11531.595000	0.95178
11533.595000	0.95296
11535.595000	0.95397
11537.595000	0.95437
11539.595000	0.95519
11541.695000	0.95745
11543.595000	0.95979
11545.495000	0.96236
11547.695000	0.96505
11549.595000	0.96753
11550.095000	0.96820
11550.295000	0.96847
11550.495000	0.96873
11550.795000	0.96981
11551.095000	0.97027
11551.395000	0.97127
11551.695000	0.97254
11551.995000	0.97391
11552.295000	0.97493
11552.595000	0.97582
11552.895000	0.97736
11553.195000	0.97921
11553.495000	0.98019
11553.795000	0.98041
11554.095000	0.98108
11554.395000	0.98236
11554.695000	0.98403
11554.995000	0.98562
11555.295000	0.98733
11555.595000	0.98965
11555.895000	0.99183
11556.195000	0.99440
11556.495000	0.99679
11556.795000	0.99862
11557.095000	1.00076
11557.395000	1.00373
11557.695000	1.00730
11557.995000	1.01106
11558.295000	1.01479
11558.595000	1.01895
11558.895000	1.02367
11559.195000	1.02867
11559.495000	1.03401
11559.795000	1.03960
11560.095000	1.04581
11560.395000	1.05313
11560.695000	1.06109
11560.995000	1.06921
11561.295000	1.07819
11561.595000	1.08814
11561.895000	1.09941
11562.195000	1.11195
11562.495000	1.12609
11562.795000	1.14143
11563.095000	1.15943
11563.395000	1.18066
11563.695000	1.20422
11563.995000	1.22992
11564.295000	1.25870
11564.595000	1.29076
11564.895000	1.32622
11565.195000	1.36458
11565.495000	1.40547
11565.795000	1.44889
11566.095000	1.49544
11566.395000	1.54297
11566.695000	1.58851
11566.995000	1.62919
11567.295000	1.66277
11567.595000	1.68777
11567.895000	1.70125
11568.195000	1.70380
11568.495000	1.69712
11568.795000	1.68292
11569.095000	1.66122
11569.395000	1.63438
11569.695000	1.60473
11569.995000	1.57412
11570.295000	1.54412
11570.595000	1.51572
11570.895000	1.48979
11571.195000	1.46698
11571.495000	1.44847
11571.795000	1.43390
11572.095000	1.42170
11572.395000	1.41202
11572.695000	1.40521
11572.995000	1.40066
11573.295000	1.39718
11573.595000	1.39504
11573.895000	1.39497
11574.195000	1.39580
11574.495000	1.39708
11574.795000	1.39881
11575.095000	1.40178
11575.395000	1.40476
11575.695000	1.40710
11575.995000	1.40943
11576.295000	1.41173
11576.595000	1.41280
11576.895000	1.41330
11577.195000	1.41359
11577.495000	1.41278
11577.795000	1.41130
11578.095000	1.40983
11578.395000	1.40715
11578.695000	1.40373
11578.995000	1.40016
11579.295000	1.39684
11579.595000	1.39285
11579.895000	1.38746
11580.195000	1.38128
11580.495000	1.37546
11580.795000	1.37073
11581.095000	1.36638
11581.395000	1.36211
11581.695000	1.35793
11581.995000	1.35299
11582.295000	1.34919
11582.595000	1.34654
11582.895000	1.34278
11583.195000	1.33898
11583.495000	1.33661
11583.795000	1.33395
11584.095000	1.33115
11584.395000	1.32918
11584.695000	1.32801
11584.995000	1.32721
11585.295000	1.32608
11585.595000	1.32547
11587.395000	1.32474
11588.495000	1.32773
11590.295000	1.33492
11591.495000	1.34000
11592.395000	1.34357
11593.495000	1.34761
11594.595000	1.35142
11595.695000	1.35488
11596.795000	1.35873
11597.895000	1.36235
11598.995000	1.36591
11600.195000	1.36963
11601.395000	1.37220
11602.495000	1.37422
11603.895000	1.37610
11604.995000	1.37839
11606.295000	1.38154
11607.595000	1.38584
11608.895000	1.39085
11610.195000	1.39820
11611.595000	1.40640
11612.895000	1.41239
11614.195000	1.41755
11615.595000	1.41946
11617.095000	1.41579
11618.495000	1.40932
11619.895000	1.40137
11621.395000	1.39118
11622.895000	1.38065
11624.495000	1.37108
11625.895000	1.36297
11627.395000	1.35636
11628.995000	1.35246
11630.595000	1.35133
11632.295000	1.35053
11633.795000	1.35008
11635.495000	1.34930
11637.095000	1.34601
11638.895000	1.34283
11640.495000	1.33954
11642.195000	1.33600
11643.895000	1.33283
11645.795000	1.33086
11647.395000	1.33132
11649.295000	1.33383
11650.995000	1.33754
11652.995000	1.34205
11654.695000	1.34608
11656.595000	1.35041
11658.395000	1.35438
11660.395000	1.35884
11662.295000	1.36392
11664.295000	1.36919
11666.195000	1.37382
11668.195000	1.37851
11670.095000	1.38155
11672.195000	1.38302
11674.195000	1.38130
11676.295000	1.37703
11678.295000	1.37184
11680.495000	1.36438
11682.495000	1.35787
11684.695000	1.35031
11686.795000	1.34454
11688.995000	1.34090
11691.195000	1.33825
11693.395000	1.33569
11695.695000	1.33463
11697.795000	1.33392
11699.995000	1.33350
11702.395000	1.33332
11704.695000	1.33401
11706.995000	1.33461
11709.395000	1.33393
11711.695000	1.33370
11713.995000	1.33218
11716.495000	1.33079
11718.895000	1.33027
11721.295000	1.33078
11723.795000	1.33235
11726.195000	1.33329
11728.595000	1.33553
11731.295000	1.33806
11733.695000	1.34107
11736.295000	1.34495
11738.895000	1.34862
11741.395000	1.35102
11743.995000	1.35207
11746.695000	1.35057
11749.295000	1.34827
11751.995000	1.34423
11754.595000	1.34083
11757.195000	1.33906
11759.995000	1.33757
11762.695000	1.33537
11765.495000	1.33379
11768.295000	1.33188
11770.995000	1.32932
11773.895000	1.32641
11776.695000	1.32313
11779.495000	1.32040
11782.495000	1.31776
11785.295000	1.31622
11788.195000	1.31544
11791.095000	1.31449
11793.995000	1.31375
11797.095000	1.31316
11799.895000	1.31352
11802.995000	1.31351
11805.995000	1.31370
11808.995000	1.31372
11812.095000	1.31502
11815.095000	1.31673
11818.195000	1.31903
11821.295000	1.31996
11824.495000	1.32122
11827.595000	1.32173
11830.695000	1.32181
11833.895000	1.32032
11837.095000	1.31767
11840.395000	1.31583
11843.495000	1.31384
11846.795000	1.31183
11850.095000	1.30871
11853.395000	1.30837
11856.695000	1.30685
11859.995000	1.30548
11863.395000	1.30376
11866.795000	1.30275
11870.195000	1.30146
11873.495000	1.30050
11876.995000	1.29892
11880.495000	1.29684
11883.995000	1.29563
11887.395000	1.29577
11890.895000	1.29657
11894.495000	1.29362
11898.095000	1.29133
11901.595000	1.29053
11905.095000	1.28884
11908.795000	1.28887
11912.495000	1.28826
11915.995000	1.28750
11919.695000	1.28814
11923.395000	1.28909
11927.095000	1.29121
11930.695000	1.29043
11934.495000	1.29099
11938.295000	1.29224
11942.095000	1.29178
11945.795000	1.28971
11949.595000	1.28675
11953.395000	1.28655
11957.295000	1.28406
11961.095000	1.28238
11964.995000	1.27997
11968.895000	1.27733
11972.895000	1.27700
11976.695000	1.27620
11980.795000	1.27324
11984.695000	1.27230
11988.795000	1.26998
11992.695000	1.26946
11996.795000	1.26751
12000.895000	1.26890
12004.895000	1.26903
12008.995000	1.26843
12013.195000	1.26920
12017.295000	1.26974
12021.295000	1.26840
12025.595000	1.26686
12029.695000	1.26526
12033.995000	1.26435
12038.095000	1.26411
12042.495000	1.26259
12046.695000	1.26095
12050.895000	1.25937
12055.295000	1.25868
12059.495000	1.25809
12063.895000	1.25652
12068.195000	1.25721
12072.695000	1.25527
12077.095000	1.25377
12081.395000	1.25340
12085.895000	1.25203
12090.295000	1.25072
12094.795000	1.25015
12099.195000	1.24883
12103.795000	1.24749
12108.295000	1.24471
12112.795000	1.24400
12117.395000	1.24146
12121.995000	1.23986
12126.495000	1.23816
12131.195000	1.23562
12135.795000	1.23306
12140.495000	1.23259
12145.095000	1.23195
12149.895000	1.23113
12154.595000	1.23031
12159.195000	1.22980
12164.095000	1.22958
12168.795000	1.22813
12173.495000	1.22794
12178.395000	1.22642
12183.195000	1.22500
12188.095000	1.22652
12192.895000	1.22479
12197.795000	1.22278
12202.695000	1.21985
12207.595000	1.21851
12212.595000	1.21672
12217.495000	1.21443
12222.395000	1.21420
12227.595000	1.21412
12232.495000	1.21095
12237.395000	1.20885
12242.695000	1.20686
12247.695000	1.20689
12252.695000	1.20673
12257.895000	1.20537
12263.095000	1.20376
12267.995000	1.20313
12273.395000	1.20239
12278.495000	1.20121
12283.595000	1.19991
12288.995000	1.19726
12294.195000	1.19609
12299.395000	1.19494
12304.795000	1.19472
12309.995000	1.19195
12315.195000	1.18979
12320.795000	1.18939
12326.095000	1.18842
12331.295000	1.18859
12336.895000	1.18722
12342.195000	1.18684
12347.495000	1.18655
12353.195000	1.18586
12358.595000	1.18573
12363.995000	1.18456
12369.595000	1.18393
12375.095000	1.18316
12380.595000	1.18032
12386.195000	1.17959
12391.795000	1.17776
12397.395000	1.17586
12402.995000	1.17439
12408.595000	1.17321
12414.295000	1.17097
