# XDI/1.0
# Column.1: energy(ev)
# Column.2: fluorescence_emission(au)
# Element.symbol: U
# Element.edge: L3
# Mono.name: Si 2 2 0
# Mono.d_spacing: 1.92
# Beamline.name: FAME
# Sample.name: Pellet of uraninite (UO2)
# Sample.temperature: 25.0 +/- 5.0 Â°C
# Sample.pressure: 1.0 bar
# Citation.doi:  https://doi.org/10.26302/SSHADE/EXPERIMENT_EB_20180618_001
# Citation.comments: Bazarkina, Elena; Hazemann, Jean-Louis (2018): U L3 edge XAS HERFD of U(IV)-uraninite and U(VI)-uranyl references. SSHADE/FAME (OSUG Data Center). Dataset/Spectral Data. https://doi.org/10.26302/SSHADE/EXPERIMENT_EB_20180618_001Schmitt, Bernard; Bollard, Philippe; Albert, Damien; Garenne, Alexandre; Bonal, Lydie; and the SSHADE partner's consortium (2018). SSHADE: 'Solid Spectroscopy Hosting Architecture of Databases and Expertise'. OSUG Data Center. Service/Database infrastructure. https://doi.org/10.26302/SSHADE
# ////
#---------
# energy(ev)	fluorescence_emission(au)
17006.100000	1.03551
17012.000000	1.14691
17017.100000	1.19661
17022.200000	1.19516
17027.400000	1.10628
17032.300000	1.19741
17037.200000	1.28272
17042.300000	1.23800
17047.200000	1.24056
17052.300000	1.33118
17057.500000	1.63101
17062.400000	1.68056
17067.400000	1.50644
17072.500000	1.63061
17077.400000	1.52449
17082.600000	1.67880
17087.700000	1.54963
17092.500000	1.78151
17097.600000	1.79917
17102.600000	2.01043
17107.500000	2.27471
17112.600000	2.24236
17117.700000	2.44539
17122.500000	2.71845
17127.600000	3.04870
17132.700000	3.72238
17137.500000	4.46982
17138.200000	4.68893
17138.600000	4.68005
17139.000000	4.77924
17139.600000	5.07327
17140.300000	5.19665
17140.800000	5.28694
17141.200000	5.34609
17141.700000	5.60797
17142.200000	5.77987
17142.700000	5.95235
17143.200000	6.11415
17143.700000	6.19923
17144.200000	6.45860
17144.800000	6.63724
17145.200000	6.88325
17145.700000	7.18807
17146.200000	7.28011
17146.800000	7.73433
17147.200000	7.79159
17147.700000	8.32069
17148.300000	8.52253
17148.700000	8.83143
17149.200000	9.12787
17149.700000	9.52662
17150.200000	10.19388
17150.700000	10.47324
17151.200000	10.92745
17151.700000	11.24675
17152.200000	11.85663
17152.800000	12.40452
17153.200000	13.16690
17153.700000	13.82190
17154.200000	14.65987
17154.700000	15.38428
17155.200000	16.67933
17155.700000	17.67751
17156.300000	18.94148
17156.700000	20.21343
17157.200000	21.65111
17157.800000	24.12062
17158.300000	25.99627
17158.700000	28.26008
17159.200000	31.84618
17159.700000	35.05896
17160.300000	41.57318
17160.700000	47.13119
17161.200000	55.03491
17161.800000	65.35764
17162.200000	78.49933
17162.700000	94.76245
17163.200000	114.34753
17163.800000	139.08365
17164.200000	163.55925
17164.700000	196.76621
17165.200000	231.81380
17165.800000	284.44826
17166.200000	324.70813
17166.700000	383.74987
17167.200000	451.37914
17167.700000	522.85690
17168.200000	606.37072
17168.700000	686.77555
17169.200000	775.02563
17169.700000	850.56836
17170.200000	931.37894
17170.700000	1001.71550
17171.300000	1065.58190
17171.700000	1112.30010
17172.200000	1162.38000
17172.800000	1203.06890
17173.300000	1230.52470
17173.700000	1235.98190
17174.200000	1229.28540
17174.700000	1203.86630
17175.300000	1158.87430
17175.700000	1099.88860
17176.200000	1036.11420
17176.700000	969.44403
17177.300000	894.97855
17177.700000	839.50691
17178.200000	775.86920
17178.800000	717.49670
17179.300000	679.92497
17179.700000	639.41151
17180.200000	606.88665
17180.800000	577.33776
17181.200000	560.70561
17181.700000	545.46552
17182.200000	532.01813
17182.800000	522.70857
17183.200000	518.03937
17183.700000	517.09407
17184.200000	516.93342
17184.700000	518.23437
17185.200000	523.09533
17185.700000	522.91244
17186.200000	527.70262
17186.700000	531.20232
17187.200000	536.27099
17187.700000	538.93946
17188.300000	541.85602
17188.700000	543.66661
17189.200000	543.84094
17189.700000	544.97556
17190.300000	539.85031
17190.700000	537.40955
17191.200000	531.68493
17191.700000	521.78046
17192.300000	510.29167
17192.700000	502.59904
17193.200000	492.32850
17193.800000	482.48012
17194.300000	476.94120
17194.700000	473.06021
17195.200000	470.24273
17195.700000	468.68894
17196.200000	468.53522
17196.700000	471.68425
17197.200000	474.95152
17197.700000	481.16687
17198.200000	484.10713
17198.700000	489.77053
17199.200000	496.97415
17199.700000	502.09413
17200.200000	509.20753
17200.700000	518.45655
17201.200000	524.48274
17201.800000	531.93817
17202.200000	539.43553
17202.700000	548.31154
17203.300000	557.58760
17203.700000	563.70679
17204.300000	573.78235
17204.700000	579.44613
17205.300000	586.98530
17205.800000	595.80847
17206.200000	599.79258
17206.700000	608.40825
17207.200000	614.28469
17207.700000	621.98050
17208.200000	627.33136
17208.700000	633.31324
17209.300000	638.61395
17209.800000	645.19084
17210.200000	648.92848
17210.700000	651.78426
17211.200000	653.81788
17211.700000	657.04065
17212.200000	655.92664
17212.700000	655.86622
17213.200000	651.70974
17213.700000	650.11591
17214.200000	645.72790
17214.700000	639.70606
17215.200000	633.36425
17215.700000	626.75661
17216.200000	621.63176
17216.800000	613.44224
17218.700000	589.73873
17219.700000	581.23729
17222.600000	559.69273
17224.100000	554.85536
17225.700000	548.07104
17227.200000	546.47932
17228.700000	545.14920
17230.300000	549.05716
17231.900000	553.35209
17233.600000	555.61611
17235.300000	557.36555
17237.000000	552.87501
17238.600000	542.09536
17240.300000	531.21157
17242.000000	524.23084
17243.700000	520.19260
17245.500000	522.48108
17247.200000	524.58431
17249.000000	531.80249
17250.900000	536.12861
17252.700000	542.77647
17254.500000	550.41958
17256.400000	557.66723
17258.400000	562.15754
17260.200000	565.91266
17262.100000	570.94250
17264.000000	573.89363
17266.100000	580.87861
17268.100000	583.13635
17270.100000	585.97048
17272.100000	586.09354
17274.200000	582.07916
17276.100000	577.96360
17278.200000	576.04317
17280.300000	574.32928
17282.500000	570.70716
17284.600000	568.59316
17286.700000	567.74796
17288.900000	561.74914
17291.200000	558.64165
17293.300000	554.69921
17295.500000	550.44312
17297.800000	544.73362
17300.200000	544.06817
17302.400000	545.25864
17304.700000	544.84909
17307.100000	545.62669
17309.300000	548.93435
17311.600000	551.37904
17314.100000	552.38690
17316.500000	548.90743
17318.900000	547.22428
17321.400000	545.92501
17323.800000	546.84599
17326.200000	547.05281
17328.800000	550.11726
17331.200000	554.69625
17333.900000	559.91098
17336.300000	561.12491
17339.100000	561.89563
17341.400000	563.24613
17344.200000	561.46311
17346.800000	561.06717
17349.400000	563.93977
17352.000000	562.22090
17354.800000	560.61242
17357.400000	562.13374
17360.100000	561.31249
17362.900000	557.68030
17365.700000	553.84875
17368.500000	550.27026
17371.300000	552.25990
17374.000000	550.74374
17376.800000	553.67174
17379.800000	555.18519
17382.600000	556.76808
17385.600000	557.31679
17388.400000	557.82399
17391.300000	560.63390
17394.300000	558.95767
17397.300000	556.67578
17400.300000	551.44828
17403.300000	548.07228
17406.200000	547.06778
17409.300000	546.62033
17412.400000	548.31532
17415.400000	549.17735
17418.600000	547.44515
17421.600000	551.08393
17424.700000	552.86504
17428.000000	555.57123
17431.100000	559.08745
17434.400000	561.37758
17437.500000	563.19664
17440.700000	563.81521
17444.000000	564.02352
17447.200000	561.95720
17450.600000	558.00323
17453.800000	556.21102
17457.100000	553.94467
17460.600000	552.75986
17463.900000	550.79214
17467.400000	550.71322
17470.600000	549.78492
17474.000000	551.83507
17477.600000	553.66143
17480.900000	551.73938
17484.500000	554.40713
17487.900000	555.97477
17491.500000	557.54749
17495.000000	558.64557
17498.600000	557.49634
17502.100000	557.94085
17505.600000	553.89681
17509.400000	554.85678
17512.900000	552.50654
17516.600000	553.04724
17520.200000	552.21598
17523.900000	550.33123
17527.700000	548.21898
17531.500000	547.07787
17535.100000	547.25926
17538.800000	549.59124
17542.700000	553.68832
17546.400000	557.53323
17550.200000	561.64194
17554.000000	559.69676
17557.900000	559.91681
17561.800000	558.49955
17565.800000	556.41608
17569.500000	554.34789
17573.500000	556.33385
17577.400000	554.07363
17581.500000	553.67113
17585.300000	552.06341
17589.400000	551.58466
17593.500000	549.11055
17597.600000	551.49985
17601.500000	553.29321
17605.600000	551.50760
17609.700000	550.90893
17613.900000	552.35750
17617.900000	554.83761
17622.100000	556.74918
17626.400000	555.23784
17630.700000	556.33562
17634.700000	554.83976
17638.900000	555.53502
17643.200000	552.83415
17647.500000	553.22342
17651.700000	552.39872
17656.000000	549.46834
17660.400000	551.47141
17664.800000	550.36166
17669.000000	550.47099
17673.500000	551.19481
17677.800000	549.54595
17682.300000	552.56644
17686.600000	554.73947
17691.100000	556.73463
17695.700000	557.84443
17700.200000	558.43376
17704.600000	555.24561
