# XDI/1.0
# Column.1: energy(ev)
# Column.2: fluorescence_emission(au)
# Element.symbol: Br
# Element.edge: K
# Mono.name: Si 2 2 0
# Mono.d_spacing: 1.92
# Beamline.name: FAME
# Sample.name: Gallium bromide solution in hydrothermal conditions: Ga3+ 0.017m, Br- 0.051m
# Sample.temperature: 300.0 +/- 0.1 K
# Sample.pressure: 300.0 +/- 0.5 bar
# Citation.doi:  https://doi.org/10.26302/SSHADE/EXPERIMENT_DT_20180710_001
# Citation.comments: Da Silva, CÃ©cile; Testemale, Denis; Hazemann, Jean-Louis; Proux, Olivier (2006): Br K edge XAS of gallium bromide solution in hydrothermal conditions at 300bars and between 300 and 650K. SSHADE/FAME (OSUG Data Center). Dataset/Spectral Data. https://doi.org/10.26302/SSHADE/EXPERIMENT_DT_20180710_001Schmitt, Bernard; Bollard, Philippe; Albert, Damien; Garenne, Alexandre; Bonal, Lydie; and the SSHADE partner's consortium (2018). SSHADE: 'Solid Spectroscopy Hosting Architecture of Databases and Expertise'. OSUG Data Center. Service/Database infrastructure. https://doi.org/10.26302/SSHADE
# ////
#---------
# energy(ev)	fluorescence_emission(au)
13304.400301	0.02343
13309.700301	0.02335
13314.700301	0.02327
13319.700301	0.02325
13324.900301	0.02320
13330.000302	0.02324
13335.000302	0.02320
13339.900302	0.02314
13345.000302	0.02321
13349.900302	0.02320
13355.000302	0.02323
13359.900302	0.02329
13364.900302	0.02342
13370.000302	0.02364
13375.000303	0.02370
13380.000303	0.02409
13384.900303	0.02426
13390.000303	0.02452
13395.000303	0.02489
13400.000303	0.02523
13405.000303	0.02589
13410.100303	0.02638
13414.900303	0.02741
13420.000304	0.02835
13424.900304	0.02962
13430.000304	0.03145
13434.900304	0.03324
13435.400304	0.03346
13435.900304	0.03380
13436.400304	0.03400
13436.900304	0.03415
13437.400304	0.03451
13437.900304	0.03487
13438.500304	0.03509
13439.000304	0.03538
13439.400304	0.03588
13439.900304	0.03580
13440.400304	0.03639
13440.900304	0.03670
13441.500304	0.03704
13441.900304	0.03724
13442.400304	0.03765
13442.900304	0.03805
13443.400304	0.03853
13444.000304	0.03892
13444.500304	0.03934
13444.900304	0.03988
13445.400304	0.04036
13445.900304	0.04089
13446.500304	0.04137
13447.000304	0.04192
13447.400304	0.04240
13448.000304	0.04296
13448.400304	0.04346
13448.900304	0.04416
13449.400304	0.04485
13449.900304	0.04550
13450.400304	0.04613
13450.900304	0.04677
13451.400304	0.04763
13451.900304	0.04849
13452.400304	0.04950
13452.900304	0.05026
13453.400304	0.05107
13454.000304	0.05248
13454.400304	0.05320
13455.000304	0.05468
13455.400304	0.05549
13455.900304	0.05689
13456.400304	0.05816
13456.900304	0.05966
13457.400304	0.06116
13457.900304	0.06263
13458.400304	0.06451
13458.900304	0.06646
13459.400304	0.06832
13459.900304	0.07063
13460.400304	0.07295
13460.900305	0.07540
13461.400305	0.07826
13461.900305	0.08144
13462.400305	0.08459
13462.900305	0.08848
13463.400305	0.09230
13463.900305	0.09677
13464.400305	0.10151
13464.900305	0.10694
13465.400305	0.11330
13465.900305	0.12103
13466.400305	0.12911
13466.900305	0.13893
13467.400305	0.15066
13468.000305	0.16649
13468.500305	0.18447
13469.000305	0.20578
13469.400305	0.22934
13469.900305	0.26210
13470.400305	0.30437
13470.900305	0.35859
13471.400305	0.42875
13471.900305	0.52359
13472.400305	0.64656
13472.900305	0.79896
13473.500305	0.98363
13473.900305	1.18021
13474.400305	1.37977
13474.900305	1.54096
13475.400305	1.67228
13475.900305	1.75959
13476.400305	1.81053
13477.000305	1.84332
13477.500305	1.85375
13478.000305	1.85408
13478.400305	1.84716
13478.900305	1.82735
13479.400305	1.79821
13479.900305	1.75602
13480.400305	1.70471
13480.900305	1.64295
13481.400305	1.57973
13481.900305	1.51398
13482.500305	1.44526
13482.900305	1.39994
13483.400305	1.35567
13483.900305	1.31722
13484.400305	1.29003
13484.900305	1.27464
13485.400305	1.26776
13485.900305	1.26989
13486.400305	1.27879
13486.900305	1.29326
13487.400305	1.31331
13487.900305	1.33526
13488.400305	1.35891
13488.900305	1.38193
13489.400305	1.40767
13489.900305	1.43083
13490.400305	1.45461
13490.900305	1.47810
13491.400305	1.50178
13492.000305	1.52272
13492.800305	1.55341
13494.500305	1.59287
13495.300305	1.60483
13496.200305	1.61138
13497.100305	1.61274
13498.100305	1.61150
13499.100305	1.60330
13500.000305	1.59339
13501.100305	1.57763
13502.000305	1.56526
13503.100305	1.54898
13504.200305	1.53010
13505.300306	1.51213
13506.300306	1.49611
13507.500306	1.47960
13508.700306	1.46393
13509.800306	1.45469
13511.000306	1.44740
13512.200306	1.44260
13513.400306	1.43932
13514.600306	1.43806
13515.900306	1.44077
13517.100306	1.44310
13518.400306	1.44997
13519.700306	1.45591
13521.000306	1.46322
13522.400306	1.46972
13523.800306	1.47744
13525.100306	1.48191
13526.400306	1.48703
13527.900306	1.49022
13529.400306	1.49076
13530.900306	1.49003
13532.300306	1.48840
13533.800306	1.48521
13535.400306	1.47948
13536.800306	1.47410
13538.400306	1.46865
13540.000306	1.46252
13541.600306	1.45646
13543.100306	1.45125
13544.800306	1.44477
13546.400306	1.44109
13548.100306	1.43630
13549.800307	1.43455
13551.400307	1.43364
13553.200307	1.43327
13554.900307	1.43252
13556.600307	1.43461
13558.500307	1.43695
13560.300307	1.43961
13562.100307	1.44102
13563.900307	1.44327
13565.700307	1.44554
13567.600307	1.44910
13569.600307	1.44990
13571.400307	1.45021
13573.400307	1.45017
13575.300307	1.44920
13577.300307	1.44808
13579.300307	1.44702
13581.300307	1.44545
13583.300307	1.44416
13585.400307	1.44318
13587.300307	1.44119
13589.500307	1.44017
13591.600307	1.43896
13593.700308	1.43838
13595.800308	1.43803
13598.100308	1.43863
13600.200308	1.43877
13602.400308	1.44012
13604.500308	1.44000
13606.800308	1.44006
13609.100308	1.43956
13611.400308	1.43899
13613.600308	1.44050
13615.900308	1.44009
13618.300308	1.44101
13620.600308	1.44054
13623.000308	1.43979
13625.300308	1.43864
13627.800308	1.43601
13630.100308	1.43518
13632.600308	1.43465
13635.000308	1.43421
13637.600309	1.43371
13640.000309	1.43156
13642.500309	1.43112
13645.000309	1.43029
13647.700309	1.42984
13650.200309	1.43000
13652.800309	1.42889
13655.400309	1.42827
13658.100309	1.42803
13660.600309	1.42803
13663.300309	1.42759
13666.000309	1.42617
13668.700309	1.42619
13671.400309	1.42683
13674.200309	1.42530
13677.000309	1.42599
13679.700309	1.42398
13682.400310	1.42399
13685.300310	1.42363
13688.100310	1.42366
13691.000310	1.42313
13693.800310	1.42449
13696.800310	1.42337
13699.600310	1.42405
13702.600310	1.42180
13705.600310	1.42026
13708.500310	1.42092
13711.500310	1.42031
13714.500310	1.42003
13717.600310	1.42051
13720.600310	1.41866
13723.600310	1.41916
13726.800311	1.41896
13729.800311	1.41815
13732.900311	1.41744
13736.100311	1.41676
13739.200311	1.41594
13742.300311	1.41579
13745.600311	1.41652
13748.800311	1.41529
13752.000311	1.41409
13755.200311	1.41438
13758.500311	1.41336
13761.800311	1.41326
13765.100311	1.41299
13768.500311	1.41146
13771.800312	1.41026
13775.200312	1.40955
13778.600312	1.40952
13781.900312	1.40838
13785.300312	1.40823
13788.800312	1.40760
13792.100312	1.40673
13795.700312	1.40504
13799.200312	1.40545
13802.800312	1.40496
13806.300312	1.40356
13809.800312	1.40247
13813.300312	1.40196
13817.000313	1.40243
13820.600313	1.40073
13824.200313	1.40158
13827.900313	1.39961
13831.500313	1.40010
13835.200313	1.39842
13839.000313	1.39712
13842.600313	1.39619
13846.400313	1.39625
13850.100313	1.39526
13853.700313	1.39542
13857.600313	1.39385
13861.500314	1.39404
13865.300314	1.39234
13869.200314	1.39214
13873.000314	1.39136
13877.000314	1.39032
13880.800314	1.38969
13884.800314	1.38909
13888.800314	1.38774
13892.700314	1.38685
13896.700314	1.38688
13900.600314	1.38627
13904.600315	1.38463
13908.900315	1.38408
13912.800315	1.38248
13916.900315	1.38195
13921.000315	1.38093
13925.000315	1.38063
13929.200315	1.38011
13933.400315	1.38037
13937.500315	1.37953
13941.800315	1.37796
13946.000315	1.37665
13950.300316	1.37534
13954.500316	1.37457
13958.700316	1.37421
13962.900316	1.37266
13967.300316	1.37210
13971.600316	1.37092
13975.900316	1.37070
13980.300316	1.36939
13984.700316	1.36866
13989.100316	1.36891
13993.500317	1.36632
13997.900317	1.36600
14002.400317	1.36584
14006.800317	1.36544
14011.500317	1.36458
14015.900317	1.36402
14020.400317	1.36320
14024.900317	1.36236
14029.500317	1.36032
14034.100317	1.36044
14038.700318	1.35999
14043.400318	1.35868
14048.000318	1.35722
14052.700318	1.35721
14057.300318	1.35641
14062.100318	1.35578
14066.800318	1.35363
14071.500318	1.35315
14076.300318	1.35384
14081.000319	1.35299
14085.800319	1.35130
14090.600319	1.35104
14095.500319	1.35068
14100.200319	1.34914
14105.300319	1.34931
14110.000319	1.34772
14115.000319	1.34635
14119.900319	1.34561
14125.000320	1.34536
14129.900320	1.34545
14134.800320	1.34430
14139.900320	1.34344
14144.900320	1.34211
14149.900320	1.34188
14155.000320	1.34117
14160.000320	1.33996
14165.000320	1.33905
14170.200321	1.33805
14175.300321	1.33750
14180.600321	1.33651
14185.700321	1.33592
14191.000321	1.33542
14196.000321	1.33452
14201.300321	1.33327
14206.500321	1.33213
14211.900321	1.33245
14217.000322	1.33115
14222.500322	1.33008
14227.700322	1.33030
14233.100322	1.32920
14238.400322	1.32825
14243.900322	1.32625
14249.200322	1.32603
14254.700322	1.32564
14260.100323	1.32515
14265.600323	1.32384
14270.900323	1.32246
14276.500323	1.32077
14282.000323	1.32120
14287.600323	1.32019
14293.000323	1.31924
14298.800323	1.31731
14304.400324	1.31741
14310.000324	1.31692
14315.500324	1.31579
14321.200324	1.31462
14326.900324	1.31295
14332.400324	1.31201
14338.200324	1.31041
14344.000324	1.30959
14349.700325	1.30901
14355.300325	1.30930
14361.300325	1.30767
14367.000325	1.30546
14372.900325	1.30525
14378.600325	1.30370
14384.600325	1.30365
14390.400326	1.30226
14396.300326	1.30171
14402.200326	1.30097
14408.200326	1.29978
14414.000326	1.29891
14420.000326	1.29813
14426.100326	1.29633
14432.000326	1.29521
14438.100327	1.29422
