# XDI/1.0
# Column.1: energy(ev)
# Column.2: fluorescence_emission(au)
# Element.symbol: Ga
# Element.edge: K
# Mono.name: Si 2 2 0
# Mono.d_spacing: 1.92
# Beamline.name: FAME
# Sample.name: Gallium bromide solution in hydrothermal conditions: Ga3+ 0.17m, Br- 0.51m
# Sample.temperature: 560.0 +/- 0.1 K
# Sample.pressure: 300.0 +/- 0.5 bar
# Citation.doi:  https://doi.org/10.26302/SSHADE/EXPERIMENT_DT_20180710_002
# Citation.comments: Da Silva, CÃ©cile; Testemale, Denis; Hazemann, Jean-Louis; Proux, Olivier (2006): Ga K edge XAS fluorescence of gallium bromide solution in hydrothermal conditions at 300bars and between 300 and 670K. SSHADE/FAME (OSUG Data Center). Dataset/Spectral Data. https://doi.org/10.26302/SSHADE/EXPERIMENT_DT_20180710_002Schmitt, Bernard; Bollard, Philippe; Albert, Damien; Garenne, Alexandre; Bonal, Lydie; and the SSHADE partner's consortium (2018). SSHADE: 'Solid Spectroscopy Hosting Architecture of Databases and Expertise'. OSUG Data Center. Service/Database infrastructure. https://doi.org/10.26302/SSHADE
# ////
#---------
# energy(ev)	fluorescence_emission(au)
10229.600231	0.01924
10234.900232	0.01890
10239.900232	0.01858
10245.000232	0.01842
10250.000232	0.01808
10254.900232	0.01784
10260.000232	0.01758
10265.000232	0.01735
10270.000232	0.01708
10274.900232	0.01685
10280.000233	0.01653
10285.000233	0.01646
10290.000233	0.01620
10295.000233	0.01607
10300.100233	0.01584
10305.000233	0.01565
10310.000233	0.01544
10315.000233	0.01548
10320.000233	0.01521
10325.100234	0.01511
10330.000234	0.01503
10335.000234	0.01516
10340.000234	0.01510
10344.900234	0.01512
10350.000234	0.01533
10355.000234	0.01573
10360.000234	0.01661
10360.400234	0.01665
10361.000234	0.01669
10361.500234	0.01691
10362.000234	0.01711
10362.400234	0.01723
10362.900234	0.01753
10363.400234	0.01776
10364.000234	0.01796
10364.400234	0.01825
10364.900234	0.01849
10365.400234	0.01893
10365.900234	0.01938
10366.400235	0.01987
10366.900235	0.02034
10367.500235	0.02106
10367.900235	0.02168
10368.400235	0.02247
10368.900235	0.02352
10369.400235	0.02470
10369.900235	0.02634
10370.400235	0.02842
10371.000235	0.03140
10371.400235	0.03418
10372.000235	0.04053
10372.400235	0.04731
10373.000235	0.05834
10373.500235	0.07359
10373.900235	0.09020
10374.400235	0.12443
10374.900235	0.16496
10375.400235	0.23622
10375.900235	0.29912
10376.500235	0.33151
10376.900235	0.32165
10377.400235	0.28382
10378.000235	0.23976
10378.500235	0.20949
10379.000235	0.19439
10379.400235	0.18499
10379.900235	0.18016
10380.400235	0.17710
10380.900235	0.17419
10381.400235	0.17115
10381.900235	0.16885
10382.400235	0.16678
10382.900235	0.16457
10383.400235	0.16345
10383.900235	0.16207
10384.400235	0.16128
10384.900235	0.16055
10385.500235	0.15979
10385.900235	0.15885
10386.500235	0.15744
10387.000235	0.15556
10387.500235	0.15383
10387.900235	0.15254
10388.400235	0.15033
10389.000235	0.14892
10389.500235	0.14752
10390.000235	0.14636
10390.400235	0.14489
10390.900235	0.14423
10391.400235	0.14341
10392.000235	0.14234
10392.400235	0.14211
10392.900235	0.14190
10393.500235	0.14128
10393.900235	0.14096
10394.400235	0.14048
10394.900235	0.14040
10395.400235	0.14024
10395.900235	0.13965
10396.400235	0.13958
10396.900235	0.13922
10397.400235	0.13892
10397.900235	0.13814
10398.400235	0.13823
10398.900235	0.13755
10399.400235	0.13719
10399.900235	0.13693
10400.500235	0.13619
10400.900235	0.13590
10401.400235	0.13547
10401.900235	0.13501
10402.500235	0.13419
10402.900235	0.13380
10403.400235	0.13364
10403.900235	0.13348
10404.400235	0.13278
10404.900235	0.13273
10405.400235	0.13219
10406.000235	0.13208
10406.500235	0.13209
10406.900235	0.13191
10407.400235	0.13200
10408.000235	0.13224
10408.400235	0.13241
10409.000235	0.13289
10409.400235	0.13288
10409.900235	0.13337
10410.400235	0.13408
10411.000236	0.13471
10411.500236	0.13462
10411.900236	0.13512
10412.500236	0.13565
10413.000236	0.13609
10413.500236	0.13653
10413.900236	0.13723
10414.400236	0.13783
10414.900236	0.13836
10415.400236	0.13896
10415.900236	0.13931
10416.400236	0.13977
10416.900236	0.14076
10417.500236	0.14101
10417.900236	0.14138
10418.400236	0.14180
10418.900236	0.14231
10420.400236	0.14393
10423.300236	0.14541
10424.700236	0.14636
10426.200236	0.14677
10427.700236	0.14706
10429.200236	0.14721
10430.800236	0.14740
10432.300236	0.14724
10433.900236	0.14749
10435.500236	0.14731
10437.100236	0.14717
10438.700236	0.14742
10440.400236	0.14707
10442.100236	0.14707
10443.800236	0.14737
10445.600236	0.14749
10447.300236	0.14750
10449.000236	0.14772
10450.800236	0.14806
10452.600236	0.14814
10454.400236	0.14815
10456.100237	0.14836
10458.000237	0.14828
10459.900237	0.14840
10461.700237	0.14859
10463.700237	0.14825
10465.600237	0.14838
10467.600237	0.14806
10469.500237	0.14782
10471.500237	0.14754
10473.500237	0.14698
10475.500237	0.14646
10477.500237	0.14586
10479.600237	0.14517
10481.700237	0.14476
10483.700237	0.14440
10485.900237	0.14356
10488.000237	0.14321
10490.000237	0.14287
10492.200237	0.14278
10494.400237	0.14282
10496.700237	0.14310
10498.900237	0.14336
10501.100238	0.14407
10503.400238	0.14467
10505.700238	0.14549
10508.000238	0.14634
10510.300238	0.14690
10512.600238	0.14779
10515.000238	0.14829
10517.300238	0.14925
10519.800238	0.14988
10522.100238	0.15016
10524.600238	0.15056
10527.100238	0.15120
10529.400238	0.15141
10532.000238	0.15150
10534.400238	0.15129
10537.100238	0.15097
10539.500238	0.15087
10542.100238	0.15028
10544.700239	0.14966
10547.300239	0.14912
10549.900239	0.14872
10552.500239	0.14803
10555.200239	0.14746
10557.900239	0.14690
10560.600239	0.14645
10563.200239	0.14596
10566.000239	0.14562
10568.700239	0.14527
10571.600239	0.14528
10574.300239	0.14519
10577.100239	0.14559
10580.000239	0.14577
10582.800239	0.14610
10585.600239	0.14661
10588.500240	0.14685
10591.400240	0.14741
10594.300240	0.14793
10597.300240	0.14862
10600.300240	0.14901
10603.200240	0.14932
10606.200240	0.14953
10609.200240	0.15001
10612.300240	0.15011
10615.200240	0.15047
10618.400240	0.15022
10621.400240	0.15040
10624.600240	0.15021
10627.600240	0.15013
10630.800240	0.14969
10634.000241	0.14946
10637.200241	0.14901
10640.400241	0.14851
10643.700241	0.14820
10646.900241	0.14764
10650.100241	0.14754
10653.400241	0.14727
10656.700241	0.14668
10660.100241	0.14670
10663.400241	0.14635
10666.700241	0.14633
10670.100241	0.14651
10673.400241	0.14646
10677.000242	0.14648
10680.300242	0.14664
10683.800242	0.14707
10687.200242	0.14707
10690.700242	0.14748
10694.200242	0.14761
10697.700242	0.14805
10701.300242	0.14840
10704.800242	0.14845
10708.400242	0.14867
10712.100242	0.14880
10715.600242	0.14883
10719.300242	0.14897
10723.000243	0.14889
10726.600243	0.14873
10730.300243	0.14869
10734.000243	0.14845
10737.700243	0.14841
10741.500243	0.14787
10745.300243	0.14798
10749.100243	0.14751
10752.900243	0.14731
10756.700243	0.14704
10760.600243	0.14673
10764.400244	0.14636
10768.200244	0.14638
10772.200244	0.14635
10776.100244	0.14614
10780.000244	0.14627
10784.000244	0.14603
10788.000244	0.14612
10791.900244	0.14609
10796.100244	0.14622
10800.000244	0.14648
10804.000244	0.14648
10808.100244	0.14671
10812.200245	0.14676
10816.300245	0.14688
10820.500245	0.14694
10824.600245	0.14720
10828.700245	0.14714
10833.000245	0.14719
10837.100245	0.14719
10841.400245	0.14734
10845.700245	0.14718
10849.900245	0.14720
10854.100246	0.14696
10858.500246	0.14705
10862.800246	0.14686
10867.100246	0.14670
10871.400246	0.14648
10875.800246	0.14636
10880.200246	0.14612
10884.600246	0.14617
10889.100246	0.14582
10893.500246	0.14581
10898.000247	0.14576
10902.500247	0.14562
10906.900247	0.14561
10911.500247	0.14551
10916.000247	0.14537
10920.600247	0.14548
10925.300247	0.14532
10929.700247	0.14556
10934.300247	0.14542
10939.000247	0.14572
10943.700248	0.14573
10948.400248	0.14566
10953.000248	0.14563
10957.800248	0.14560
10962.600248	0.14589
10967.300248	0.14583
10972.000248	0.14582
10976.800248	0.14583
10981.600248	0.14580
10986.400249	0.14566
10991.300249	0.14574
10996.100249	0.14557
11001.000249	0.14553
11006.000249	0.14523
11010.800249	0.14512
11015.700249	0.14512
11020.700249	0.14500
11025.700249	0.14478
11030.800250	0.14495
11035.700250	0.14475
11040.700250	0.14487
11045.800250	0.14476
11050.900250	0.14469
11056.000250	0.14451
11061.100250	0.14449
11066.200250	0.14445
11071.300250	0.14447
11076.500251	0.14441
11081.600251	0.14442
11086.900251	0.14448
11092.100251	0.14437
11097.400251	0.14435
11102.600251	0.14469
11107.900251	0.14547
11113.200251	0.14590
11118.600252	0.14591
11123.800252	0.14545
11129.200252	0.14548
11134.600252	0.14557
11139.900252	0.14550
11145.400252	0.14517
11150.800252	0.14534
11156.300252	0.14522
11161.700252	0.14513
11167.200253	0.14508
11172.700253	0.14499
11178.300253	0.14485
11183.800253	0.14498
11189.300253	0.14476
11194.900253	0.14464
11200.500253	0.14483
11206.100253	0.14465
11211.700254	0.14447
11217.500254	0.14443
11223.100254	0.14421
11228.800254	0.14449
11234.500254	0.14420
11240.200254	0.14436
11246.000254	0.14442
11251.700255	0.14426
11257.600255	0.14437
11263.500255	0.14429
11269.200255	0.14430
11275.000255	0.14418
11280.900255	0.14433
11286.800255	0.14423
11292.700255	0.14417
11298.500256	0.14427
11304.600256	0.14416
11310.500256	0.14421
11316.400256	0.14436
11322.500256	0.14434
11328.500256	0.14430
