# XDI/1.0
# Column.1: energy(ev)
# Column.2: fluorescence_emission(au)
# Element.symbol: Pt
# Element.edge: L3
# Mono.name: Si 2 2 0
# Mono.d_spacing: 1.92
# Beamline.name: FAME
# Sample.name: Pellet of PtO2 mixed with BN
# Sample.temperature: 25.0 +/- -268.1 °C
# Sample.pressure: 1.0 bar
# Citation.doi:  https://doi.org/10.26302/SSHADE/EXPERIMENT_GP_20181107_001
# Citation.comments: Laskar, Clément; Pokrovski, Gleb; Bazarkina, Elena; Hazemann, Jean-Louis (2018): Pt L3 edge XAS HERFD and XAS transmission of platinum hydrogensulfide complexes in geological fluids (impact of sulfur on the transfer of noble metals by hydrothermal fluids). SSHADE/FAME (OSUG Data Center). Dataset/Spectral Data. https://doi.org/10.26302/SSHADE/EXPERIMENT_GP_20181107_001Schmitt, Bernard; Bollard, Philippe; Albert, Damien; Garenne, Alexandre; Bonal, Lydie; and the SSHADE partner's consortium (2018). SSHADE: 'Solid Spectroscopy Hosting Architecture of Databases and Expertise'. OSUG Data Center. Service/Database infrastructure. https://doi.org/10.26302/SSHADE
# ////
#---------
# energy(ev)	fluorescence_emission(au)
11451.500000	4.59821
11457.700000	4.46130
11462.900000	4.57984
11467.900000	4.81235
11473.000000	4.46277
11478.100000	4.54045
11483.100000	4.57190
11488.200000	4.67880
11493.100000	4.41002
11498.200000	4.79854
11503.200000	4.66964
11508.200000	4.81087
11513.300000	4.59090
11518.300000	5.06069
11523.200000	5.23130
11528.300000	4.66936
11533.300000	4.66899
11538.300000	5.07800
11543.300000	5.20452
11548.200000	6.09509
11553.400000	9.02232
11553.700000	8.89733
11553.800000	9.23087
11554.200000	10.12664
11554.500000	10.63545
11554.800000	10.73862
11555.100000	11.30257
11555.400000	11.56040
11555.700000	12.95877
11556.000000	13.61769
11556.300000	14.66700
11556.600000	15.18006
11556.900000	16.35291
11557.200000	17.96909
11557.500000	19.22425
11557.800000	19.95065
11558.100000	22.74380
11558.400000	24.38371
11558.700000	26.64405
11559.000000	30.36107
11559.300000	33.15632
11559.600000	36.47738
11559.900000	40.82049
11560.200000	46.66441
11560.500000	53.03458
11560.800000	61.98244
11561.100000	69.71637
11561.400000	82.82452
11561.700000	96.46176
11562.000000	116.54241
11562.300000	138.64716
11562.600000	169.35389
11562.900000	204.98276
11563.200000	245.83169
11563.500000	315.80045
11563.800000	398.58677
11564.100000	513.29156
11564.400000	666.52984
11564.700000	882.48631
11565.000000	1177.42130
11565.300000	1600.35540
11565.600000	2172.01760
11565.900000	2894.12570
11566.200000	3835.64130
11566.500000	4966.54150
11566.800000	6334.06790
11567.100000	8062.59610
11567.400000	9969.87650
11567.700000	11750.36300
11568.000000	13082.85100
11568.300000	13606.67900
11568.600000	13104.52600
11568.900000	11649.48000
11569.200000	9683.22450
11569.500000	7815.86030
11569.800000	6348.33300
11570.100000	4981.69680
11570.400000	3993.41590
11570.700000	3223.45360
11571.000000	2689.07240
11571.300000	2218.78470
11571.600000	1831.34040
11571.900000	1553.19780
11572.200000	1348.36510
11572.500000	1206.52020
11572.800000	1114.42130
11573.100000	1049.46000
11574.000000	987.35196
11575.000000	1057.57250
11576.100000	1210.23280
11577.100000	1372.56550
11578.100000	1465.06160
11579.100000	1496.57070
11580.100000	1551.11850
11581.100000	1679.38650
11582.100000	1801.15630
11583.100000	1842.28190
11584.100000	1783.86040
11585.100000	1714.57950
11586.100000	1718.97040
11587.100000	1807.68420
11588.100000	1945.09470
11589.100000	2104.78080
11590.000000	2245.69750
11591.100000	2312.26580
11592.100000	2297.67650
11593.100000	2237.35500
11594.100000	2178.57130
11595.100000	2153.52940
11596.100000	2152.20030
11597.100000	2181.17000
11598.100000	2219.02040
11599.100000	2263.99430
11600.100000	2298.11470
11601.100000	2324.98960
11602.100000	2340.40730
11603.000000	2364.97390
11604.100000	2396.26320
11605.100000	2425.18340
11606.100000	2463.99910
11607.100000	2512.51960
11608.100000	2569.36980
11609.100000	2639.62870
11610.100000	2730.93060
11611.100000	2822.28600
11612.100000	2899.34610
11614.000000	2999.68580
11616.100000	2963.30690
11618.000000	2817.01400
11620.200000	2661.40610
11622.200000	2538.43370
11624.100000	2421.00370
11626.100000	2320.31520
11628.100000	2244.78400
11630.100000	2193.94640
11632.000000	2166.92010
11634.100000	2160.59000
11636.200000	2190.76440
11638.100000	2211.52020
11640.100000	2235.67880
11642.100000	2254.74850
11644.100000	2264.38750
11646.100000	2271.93790
11648.200000	2280.96640
11650.100000	2282.56200
11652.100000	2277.03350
11655.100000	2268.59250
11655.800000	2272.93730
11659.300000	2275.01860
11661.300000	2280.59430
11663.200000	2292.76960
11665.100000	2303.27460
11667.000000	2321.40650
11669.000000	2333.15690
11670.900000	2359.66520
11672.900000	2374.21110
11674.900000	2398.80150
11676.900000	2433.41340
11679.100000	2455.62670
11681.000000	2470.68950
11683.100000	2487.33120
11685.200000	2482.96090
11687.300000	2479.33170
11689.500000	2460.36400
11691.700000	2444.37530
11693.900000	2420.18120
11696.000000	2402.59050
11698.200000	2387.94850
11700.500000	2365.86890
11702.700000	2360.36410
11705.000000	2345.42770
11707.300000	2325.45190
11709.600000	2318.61620
11711.900000	2318.83070
11714.300000	2310.62090
11716.600000	2300.13310
11719.000000	2295.74780
11721.500000	2289.32290
11723.800000	2270.27990
11726.300000	2265.42000
11728.800000	2264.00510
11731.100000	2263.26770
11733.700000	2270.79700
11736.300000	2276.28460
11738.700000	2278.26060
11741.300000	2288.14360
11743.900000	2297.94950
11746.400000	2301.07960
11749.100000	2308.16160
11751.700000	2315.61960
11754.400000	2337.31810
11757.000000	2344.12270
11759.600000	2362.83020
11762.400000	2366.45580
11765.200000	2379.68620
11767.900000	2384.42640
11770.600000	2388.57380
11773.400000	2394.41590
11776.200000	2385.77810
11779.100000	2380.34900
11781.800000	2359.33090
11784.700000	2348.56900
11787.600000	2337.89210
11790.500000	2322.53470
11793.400000	2322.57010
11796.300000	2312.86860
11799.200000	2306.32130
11802.200000	2310.41720
11805.200000	2304.93370
11808.300000	2300.42460
11811.200000	2296.71140
11814.300000	2299.75100
11817.300000	2297.13050
11820.400000	2305.17560
11823.600000	2310.34720
11826.700000	2313.39780
11829.800000	2313.55770
11832.900000	2309.13230
11836.200000	2310.91740
11839.300000	2302.32800
11842.500000	2292.08930
11845.700000	2280.31500
11849.000000	2273.49300
11852.400000	2271.91060
11855.600000	2262.62960
11858.900000	2269.86470
11862.200000	2275.96270
11865.600000	2281.34380
11868.900000	2288.81830
11872.300000	2292.79430
11875.600000	2295.18450
11879.100000	2295.41410
11882.600000	2306.08410
11886.000000	2306.33640
11889.500000	2310.57320
11893.000000	2323.60960
11896.600000	2316.67920
11900.000000	2320.94020
11903.600000	2317.11800
11907.200000	2315.79950
11910.800000	2306.81930
11914.400000	2310.59380
11918.000000	2294.46120
11921.600000	2283.36390
11925.400000	2270.15760
11929.000000	2267.65850
11932.700000	2262.16090
11936.400000	2260.74950
11940.200000	2256.58280
11943.900000	2261.18200
11947.700000	2260.98350
11951.500000	2254.99070
11955.400000	2258.60020
11959.200000	2268.57870
11963.000000	2262.95410
11966.900000	2265.25700
11970.900000	2270.17710
11974.700000	2268.55000
11978.600000	2265.75130
11982.600000	2264.75410
11986.600000	2264.82870
11990.500000	2256.67020
11994.500000	2257.60070
11998.600000	2254.97130
12002.600000	2249.71890
12006.700000	2248.02230
12010.700000	2240.07890
12014.900000	2242.13400
12019.000000	2244.31210
12023.100000	2244.43710
12027.200000	2244.51550
12031.500000	2248.46990
12035.600000	2247.84190
12039.800000	2245.03250
12044.100000	2252.18460
12048.300000	2253.55850
12052.600000	2246.80600
12056.800000	2242.78000
12061.200000	2244.30600
12065.500000	2246.45350
12069.800000	2242.70010
12074.300000	2236.44600
12078.600000	2227.53630
12083.000000	2220.95800
12087.400000	2221.34010
12091.900000	2211.13570
12096.300000	2208.49510
12100.800000	2204.62730
12105.400000	2204.08710
12109.800000	2201.06780
12114.300000	2200.24820
12118.900000	2196.39660
12123.500000	2199.34620
12128.100000	2198.50070
12132.600000	2197.54490
12137.300000	2205.28180
12141.900000	2202.30940
12146.500000	2204.12740
12151.400000	2209.44850
12156.000000	2210.33060
12160.700000	2208.21250
12165.500000	2198.39610
12170.200000	2198.30760
12175.000000	2196.37710
12179.800000	2190.28550
12184.700000	2183.85410
12189.500000	2173.96160
12194.300000	2178.93560
12199.200000	2171.33870
12204.100000	2170.58760
12209.000000	2167.17160
12214.000000	2169.97580
12218.800000	2170.16160
12223.800000	2172.05890
12228.900000	2161.31790
12233.800000	2163.24380
12238.800000	2167.42330
12244.000000	2161.29480
12249.000000	2159.16080
12254.000000	2161.75570
12259.200000	2164.10890
12264.300000	2159.44010
12269.400000	2157.54150
12274.600000	2153.87310
12279.700000	2147.93710
12284.900000	2138.34040
12290.200000	2130.14210
12295.400000	2123.94570
12300.600000	2127.02230
12306.000000	2114.53370
