# XDI/1.0
# Column.1: energy(ev)
# Column.2: fluorescence_emission(au)
# Element.symbol: Pt
# Element.edge: L3
# Mono.name: Si 2 2 0
# Mono.d_spacing: 1.92
# Beamline.name: FAME
# Sample.name: Pellet of K2PtCl4 mixed with BN
# Sample.temperature: 25.0 +/- -268.1 °C
# Sample.pressure: 1.0 bar
# Citation.doi:  https://doi.org/10.26302/SSHADE/EXPERIMENT_GP_20181107_001
# Citation.comments: Laskar, Clément; Pokrovski, Gleb; Bazarkina, Elena; Hazemann, Jean-Louis (2018): Pt L3 edge XAS HERFD and XAS transmission of platinum hydrogensulfide complexes in geological fluids (impact of sulfur on the transfer of noble metals by hydrothermal fluids). SSHADE/FAME (OSUG Data Center). Dataset/Spectral Data. https://doi.org/10.26302/SSHADE/EXPERIMENT_GP_20181107_001Schmitt, Bernard; Bollard, Philippe; Albert, Damien; Garenne, Alexandre; Bonal, Lydie; and the SSHADE partner's consortium (2018). SSHADE: 'Solid Spectroscopy Hosting Architecture of Databases and Expertise'. OSUG Data Center. Service/Database infrastructure. https://doi.org/10.26302/SSHADE
# ////
#---------
# energy(ev)	fluorescence_emission(au)
11451.500000	4.99813
11457.700000	4.95242
11462.900000	5.22723
11467.900000	5.09901
11473.000000	5.12537
11478.100000	5.27670
11483.100000	5.28242
11488.200000	5.29826
11493.100000	5.13212
11498.200000	5.16406
11503.200000	5.26192
11508.200000	5.27373
11513.300000	5.31915
11518.300000	5.39632
11523.200000	5.18838
11528.300000	5.29114
11533.300000	5.36355
11538.300000	5.66884
11543.300000	5.97837
11548.200000	6.81353
11553.400000	10.93409
11553.700000	11.32214
11553.800000	11.46131
11554.200000	12.21218
11554.500000	12.96595
11554.800000	13.76420
11555.100000	14.38004
11555.400000	15.60332
11555.700000	16.28733
11556.000000	17.69813
11556.300000	19.25144
11556.600000	20.47696
11556.900000	23.01224
11557.200000	24.82290
11557.500000	28.03971
11557.800000	30.86692
11558.100000	34.00079
11558.400000	39.43606
11558.700000	44.33927
11559.000000	50.46068
11559.300000	58.15835
11559.600000	66.53091
11559.900000	78.22907
11560.200000	91.79101
11560.500000	109.23232
11560.800000	132.07328
11561.100000	160.89672
11561.400000	201.01626
11561.700000	251.04342
11562.000000	316.48999
11562.300000	406.27218
11562.600000	524.36337
11562.900000	695.55253
11563.200000	909.16427
11563.500000	1298.49290
11563.800000	1804.86600
11564.100000	2519.79590
11564.400000	3445.24850
11564.700000	4543.40080
11565.000000	5847.33530
11565.300000	7314.04000
11565.600000	8576.23300
11565.900000	9392.02380
11566.200000	9565.06370
11566.500000	9126.47290
11566.800000	8114.96210
11567.100000	6670.18580
11567.400000	5336.12830
11567.700000	4424.49820
11568.000000	3858.48420
11568.300000	3545.69620
11568.600000	3414.19790
11568.900000	3359.77360
11569.200000	3328.80690
11569.500000	3293.40220
11569.800000	3227.74370
11570.100000	3080.48640
11570.400000	2875.28070
11570.700000	2636.61270
11571.000000	2409.70570
11571.300000	2220.70110
11571.600000	2107.16310
11571.900000	2065.94850
11572.200000	2082.16220
11572.500000	2143.29100
11572.800000	2249.99260
11573.100000	2373.10960
11574.000000	2728.23440
11575.000000	2697.45410
11576.100000	2442.96680
11577.100000	2462.14380
11578.100000	2694.46660
11579.100000	3042.83150
11580.100000	3263.16700
11581.100000	3139.56000
11582.100000	2864.94020
11583.100000	2652.39330
11584.100000	2558.79930
11585.100000	2538.76460
11586.100000	2530.06540
11587.100000	2528.26400
11588.100000	2536.97990
11589.100000	2563.03990
11590.000000	2607.72010
11591.100000	2684.31410
11592.100000	2775.83460
11593.100000	2851.63830
11594.100000	2890.12760
11595.100000	2920.35440
11596.100000	2926.05080
11597.100000	2927.21400
11598.100000	2909.66930
11599.100000	2898.14950
11600.100000	2895.21000
11601.100000	2909.00660
11602.100000	2922.57120
11603.000000	2928.07600
11604.100000	2935.55340
11605.100000	2934.31560
11606.100000	2942.20970
11607.100000	2957.97670
11608.100000	2987.22410
11609.100000	3019.11860
11610.100000	3059.17010
11611.100000	3090.76840
11612.100000	3115.32330
11614.000000	3168.15250
11616.100000	3203.48170
11618.000000	3205.66990
11620.200000	3172.18910
11622.200000	3110.58800
11624.100000	3023.92230
11626.100000	2919.23560
11628.100000	2824.54270
11630.100000	2754.03710
11632.000000	2713.43980
11634.100000	2701.83590
11636.200000	2719.29630
11638.100000	2744.92290
11640.100000	2763.24440
11642.100000	2762.73670
11644.100000	2756.45830
11646.100000	2748.52310
11648.200000	2741.92590
11650.100000	2744.37830
11652.100000	2742.85980
11655.100000	2761.01750
11655.800000	2765.75170
11659.300000	2783.52740
11661.300000	2804.96070
11663.200000	2825.38070
11665.100000	2855.60010
11667.000000	2882.74400
11669.000000	2928.25670
11670.900000	2962.76100
11672.900000	3001.45810
11674.900000	3029.46500
11676.900000	3048.10680
11679.100000	3044.45170
11681.000000	3025.43240
11683.100000	2990.99330
11685.200000	2948.31360
11687.300000	2912.85730
11689.500000	2860.43360
11691.700000	2831.24150
11693.900000	2799.99230
11696.000000	2783.06270
11698.200000	2768.47900
11700.500000	2768.81580
11702.700000	2760.55560
11705.000000	2760.23240
11707.300000	2764.49800
11709.600000	2770.62850
11711.900000	2766.17450
11714.300000	2766.03060
11716.600000	2769.79610
11719.000000	2766.59280
11721.500000	2766.17230
11723.800000	2769.28530
11726.300000	2769.23440
11728.800000	2780.42590
11731.100000	2786.45550
11733.700000	2794.89680
11736.300000	2815.88020
11738.700000	2834.49190
11741.300000	2856.45560
11743.900000	2881.24110
11746.400000	2899.59110
11749.100000	2906.44710
11751.700000	2918.46040
11754.400000	2914.19640
11757.000000	2906.75690
11759.600000	2899.57190
11762.400000	2892.47480
11765.200000	2873.19570
11767.900000	2857.50960
11770.600000	2843.17320
11773.400000	2835.67270
11776.200000	2820.06440
11779.100000	2805.56040
11781.800000	2801.13800
11784.700000	2792.40910
11787.600000	2784.29490
11790.500000	2785.49530
11793.400000	2773.91130
11796.300000	2769.96620
11799.200000	2768.02060
11802.200000	2769.27970
11805.200000	2763.61200
11808.300000	2762.64170
11811.200000	2769.71520
11814.300000	2771.67220
11817.300000	2775.49000
11820.400000	2777.79380
11823.600000	2790.51850
11826.700000	2795.38590
11829.800000	2805.56200
11832.900000	2810.19090
11836.200000	2816.93010
11839.300000	2821.64030
11842.500000	2825.60430
11845.700000	2827.00270
11849.000000	2830.57560
11852.400000	2829.20480
11855.600000	2824.94510
11858.900000	2818.89840
11862.200000	2814.59000
11865.600000	2801.01760
11868.900000	2793.76220
11872.300000	2795.18590
11875.600000	2784.79440
11879.100000	2781.33760
11882.600000	2780.51920
11886.000000	2769.97460
11889.500000	2767.85200
11893.000000	2762.58650
11896.600000	2757.15590
11900.000000	2752.05450
11903.600000	2748.25020
11907.200000	2749.83740
11910.800000	2749.26930
11914.400000	2750.82400
11918.000000	2747.35170
11921.600000	2745.59030
11925.400000	2744.87910
11929.000000	2755.17650
11932.700000	2757.73920
11936.400000	2760.02740
11940.200000	2765.96140
11943.900000	2768.24820
11947.700000	2770.45370
11951.500000	2771.86730
11955.400000	2773.35850
11959.200000	2772.20930
11963.000000	2770.35540
11966.900000	2769.68080
11970.900000	2767.37360
11974.700000	2762.69250
11978.600000	2761.12050
11982.600000	2756.36130
11986.600000	2754.52680
11990.500000	2744.97850
11994.500000	2738.29190
11998.600000	2743.75120
12002.600000	2740.86500
12006.700000	2732.06960
12010.700000	2731.46270
12014.900000	2724.66470
12019.000000	2722.64560
12023.100000	2716.26410
12027.200000	2719.99160
12031.500000	2708.51400
12035.600000	2711.68970
12039.800000	2713.86100
12044.100000	2710.51530
12048.300000	2710.37960
12052.600000	2712.92390
12056.800000	2706.31690
12061.200000	2704.68730
12065.500000	2710.43200
12069.800000	2711.98960
12074.300000	2715.67540
12078.600000	2711.14150
12083.000000	2714.96300
12087.400000	2713.66320
12091.900000	2712.42470
12096.300000	2711.40590
12100.800000	2710.08000
12105.400000	2707.25390
12109.800000	2700.05380
12114.300000	2699.24960
12118.900000	2697.47480
12123.500000	2691.30790
12128.100000	2688.57040
12132.600000	2684.60470
12137.300000	2684.27800
12141.900000	2676.67770
12146.500000	2671.56280
12151.400000	2672.53050
12156.000000	2667.41400
12160.700000	2664.58810
12165.500000	2659.23590
12170.200000	2661.14560
12175.000000	2657.74190
12179.800000	2657.97080
12184.700000	2655.58280
12189.500000	2655.75810
12194.300000	2653.42090
12199.200000	2655.22390
12204.100000	2657.57230
12209.000000	2654.87600
12214.000000	2652.47640
12218.800000	2653.72630
12223.800000	2650.22640
12228.900000	2652.33950
12233.800000	2652.03000
12238.800000	2646.98310
12244.000000	2645.13060
12249.000000	2643.72100
12254.000000	2641.86760
12259.200000	2633.63730
12264.300000	2631.52240
12269.400000	2630.16090
12274.600000	2628.70980
12279.700000	2620.36750
12284.900000	2616.68850
12290.200000	2624.37330
12295.400000	2611.31300
12300.600000	2610.66440
12306.000000	2609.37110
