# XDI/1.0
# Column.1: energy(ev)
# Column.2: transmission(au)
# Element.symbol: Pt
# Element.edge: L3
# Mono.name: Si 2 2 0
# Mono.d_spacing: 1.92
# Beamline.name: FAME
# Sample.name: H2PtCl6 aq solution 0.007m + 0.616m HCl + 0.004m KBr
# Sample.temperature: 30.0 +/- 5.0 °C
# Sample.pressure: 600.0 bar
# Citation.doi:  https://doi.org/10.26302/SSHADE/EXPERIMENT_GP_20180208_001
# Citation.comments: Pokrovski, Gleb; Hazemann, Jean-Louis (2018): Pt L3 edge XAS fluorescence and XAS transmission of Aqueous platinum chloride soutions at 600-700 nars and 30°C. SSHADE/FAME (OSUG Data Center). Dataset/Spectral Data. https://doi.org/10.26302/SSHADE/EXPERIMENT_GP_20180208_001Schmitt, Bernard; Bollard, Philippe; Albert, Damien; Garenne, Alexandre; Bonal, Lydie; and the SSHADE partner's consortium (2018). SSHADE: 'Solid Spectroscopy Hosting Architecture of Databases and Expertise'. OSUG Data Center. Service/Database infrastructure. https://doi.org/10.26302/SSHADE
# ////
#---------
# energy(ev)	transmission(au)
11446.900000	2.52746
11450.200000	2.52598
11452.400000	2.52486
11454.400000	2.52359
11456.400000	2.52226
11458.500000	2.52122
11460.500000	2.51993
11462.400000	2.51939
11464.500000	2.51830
11466.500000	2.51614
11468.400000	2.51526
11470.500000	2.51451
11472.500000	2.51403
11474.500000	2.51281
11476.400000	2.51080
11478.500000	2.51001
11480.400000	2.50909
11482.400000	2.50812
11484.500000	2.50778
11486.500000	2.50602
11488.400000	2.50459
11490.400000	2.50312
11492.500000	2.50309
11494.500000	2.50211
11496.500000	2.50028
11498.500000	2.49942
11500.500000	2.49763
11502.500000	2.49682
11504.500000	2.49648
11506.500000	2.49530
11508.500000	2.49403
11510.500000	2.49338
11512.600000	2.49182
11514.500000	2.49054
11516.500000	2.48992
11518.500000	2.48884
11520.600000	2.48738
11522.600000	2.48735
11524.600000	2.48641
11526.700000	2.48431
11528.600000	2.48371
11530.600000	2.48269
11532.600000	2.48141
11534.600000	2.48084
11536.600000	2.48048
11538.600000	2.47891
11540.700000	2.47777
11542.600000	2.47825
11544.500000	2.47774
11546.600000	2.47662
11548.600000	2.47596
11549.200000	2.47600
11549.700000	2.47535
11550.100000	2.47502
11550.600000	2.47633
11551.100000	2.47523
11551.600000	2.47513
11552.100000	2.47587
11552.600000	2.47538
11553.100000	2.47513
11553.600000	2.47499
11554.100000	2.47559
11554.600000	2.47490
11555.100000	2.47637
11555.600000	2.47524
11556.100000	2.47702
11556.600000	2.47710
11557.100000	2.47591
11557.600000	2.47663
11558.100000	2.47842
11558.600000	2.47917
11559.100000	2.47945
11559.600000	2.48130
11560.100000	2.48221
11560.600000	2.48441
11561.100000	2.48606
11561.600000	2.48799
11562.100000	2.49236
11562.600000	2.49501
11563.100000	2.49992
11563.600000	2.50630
11564.100000	2.51386
11564.600000	2.52269
11565.100000	2.53314
11565.600000	2.54805
11566.100000	2.56349
11566.600000	2.57807
11567.100000	2.59233
11567.600000	2.60045
11568.100000	2.60298
11568.600000	2.60068
11569.100000	2.59165
11569.600000	2.57855
11570.100000	2.56533
11570.600000	2.55158
11571.100000	2.54097
11571.600000	2.53122
11572.100000	2.52379
11572.600000	2.51897
11573.100000	2.51625
11573.600000	2.51391
11574.100000	2.51244
11574.600000	2.51199
11575.100000	2.51231
11575.600000	2.51261
11576.100000	2.51415
11576.600000	2.51394
11577.100000	2.51445
11577.600000	2.51356
11578.100000	2.51472
11578.600000	2.51522
11579.100000	2.51613
11579.600000	2.51566
11580.100000	2.51541
11580.600000	2.51480
11581.100000	2.51540
11581.600000	2.51456
11582.100000	2.51399
11582.600000	2.51178
11583.100000	2.51207
11583.600000	2.51082
11584.100000	2.51100
11584.600000	2.50990
11585.500000	2.50711
11587.300000	2.50604
11588.500000	2.50550
11589.400000	2.50489
11590.400000	2.50435
11591.400000	2.50420
11592.500000	2.50492
11593.500000	2.50547
11594.700000	2.50565
11595.800000	2.50722
11596.900000	2.50554
11598.000000	2.50657
11599.200000	2.50802
11600.400000	2.50785
11601.600000	2.50752
11602.800000	2.50730
11604.000000	2.50659
11605.300000	2.50590
11606.600000	2.50628
11607.900000	2.50591
11609.300000	2.50440
11610.500000	2.50549
11611.900000	2.50564
11613.300000	2.50543
11614.600000	2.50562
11616.100000	2.50568
11617.500000	2.50534
11618.900000	2.50391
11620.400000	2.50298
11621.900000	2.50144
11623.400000	2.49968
11625.000000	2.49800
11626.400000	2.49585
11628.000000	2.49405
11629.600000	2.49166
11631.300000	2.48911
11632.800000	2.48758
11634.500000	2.48515
11636.100000	2.48510
11637.900000	2.48320
11639.500000	2.48203
11641.200000	2.48131
11642.900000	2.48040
11644.800000	2.47914
11646.400000	2.47831
11648.300000	2.47869
11650.000000	2.47784
11652.000000	2.47683
11653.700000	2.47566
11655.600000	2.47441
11657.400000	2.47465
11659.400000	2.47393
11661.300000	2.47382
11663.200000	2.47279
11665.200000	2.47253
11667.200000	2.47210
11669.100000	2.47185
11671.200000	2.47180
11673.200000	2.47153
11675.300000	2.47173
11677.300000	2.47128
11679.500000	2.46956
11681.600000	2.46812
11683.700000	2.46720
11685.800000	2.46527
11688.000000	2.46368
11690.100000	2.46096
11692.400000	2.45805
11694.700000	2.45655
11696.900000	2.45434
11699.000000	2.45364
11701.400000	2.45201
11703.600000	2.45068
11706.000000	2.45047
11708.400000	2.44788
11710.700000	2.44744
11713.000000	2.44620
11715.400000	2.44417
11717.800000	2.44399
11720.300000	2.44244
11722.800000	2.44158
11725.200000	2.44011
11727.600000	2.43998
11730.200000	2.43832
11732.700000	2.43662
11735.300000	2.43674
11737.900000	2.43532
11740.500000	2.43491
11742.800000	2.43453
11745.600000	2.43326
11748.300000	2.43307
11751.000000	2.43078
11753.600000	2.42978
11756.200000	2.42873
11759.000000	2.42660
11761.700000	2.42509
11764.500000	2.42374
11767.300000	2.42248
11770.000000	2.41996
11772.800000	2.41764
11775.600000	2.41644
11778.500000	2.41450
11781.400000	2.41323
11784.200000	2.41039
11787.100000	2.40884
11790.000000	2.40801
11793.000000	2.40577
11796.000000	2.40569
11798.900000	2.40233
11801.900000	2.40202
11804.900000	2.40100
11807.900000	2.39887
11811.100000	2.39703
11814.000000	2.39555
11817.200000	2.39474
11820.300000	2.39274
11823.500000	2.39196
11826.600000	2.39085
11829.700000	2.38936
11833.000000	2.38760
11836.100000	2.38690
11839.400000	2.38510
11842.600000	2.38366
11845.900000	2.38240
11849.200000	2.37997
11852.500000	2.37942
11855.700000	2.37688
11859.000000	2.37595
11862.500000	2.37331
11865.800000	2.37223
11869.300000	2.36919
11872.600000	2.36784
11876.100000	2.36618
11879.500000	2.36578
11883.000000	2.36229
11886.400000	2.36105
11890.000000	2.35828
11893.500000	2.35712
11897.100000	2.35520
11900.600000	2.35344
11904.200000	2.35155
11907.800000	2.34868
11911.400000	2.34702
11915.000000	2.34633
11918.700000	2.34340
11922.400000	2.34188
11926.100000	2.34079
11929.700000	2.33942
11933.500000	2.33791
11937.300000	2.33627
11941.100000	2.33410
11944.800000	2.33335
11948.600000	2.33081
11952.500000	2.32943
11956.400000	2.32749
11960.100000	2.32571
11964.000000	2.32413
11967.900000	2.32145
11971.900000	2.31909
11975.700000	2.31738
11979.800000	2.31609
11983.700000	2.31226
11987.800000	2.31203
11991.700000	2.30915
11995.800000	2.30776
11999.900000	2.30507
12003.900000	2.30380
12007.900000	2.30168
12012.200000	2.29947
12016.300000	2.29678
12020.300000	2.29526
12024.600000	2.29319
12028.700000	2.28970
12033.000000	2.28885
12037.100000	2.28643
12041.400000	2.28564
12045.700000	2.28179
12049.900000	2.28089
12054.200000	2.27939
12058.600000	2.27682
12062.900000	2.27397
12067.100000	2.27256
12071.700000	2.27044
12076.100000	2.26818
12080.400000	2.26732
12084.800000	2.26424
12089.300000	2.26138
12093.800000	2.25929
12098.200000	2.25862
12102.800000	2.25555
12107.300000	2.25250
12111.700000	2.25107
12116.400000	2.24951
12120.900000	2.24605
12125.600000	2.24499
12130.200000	2.24194
12134.800000	2.24000
12139.500000	2.23747
12144.100000	2.23602
12148.900000	2.23311
12153.600000	2.23063
12158.200000	2.22930
12163.100000	2.22626
12167.800000	2.22415
12172.500000	2.22139
12177.400000	2.21929
12182.200000	2.21731
12187.100000	2.21583
12192.000000	2.21263
12196.800000	2.21164
12201.700000	2.20914
12206.600000	2.20681
12211.600000	2.20454
12216.500000	2.20275
12221.500000	2.20044
12226.600000	2.19711
12231.600000	2.19531
12236.500000	2.19330
12241.700000	2.19069
12246.700000	2.18893
12251.700000	2.18589
12257.000000	2.18395
12262.100000	2.18109
12267.100000	2.17921
12272.400000	2.17776
12277.500000	2.17413
12282.600000	2.17195
12288.000000	2.16946
12293.200000	2.16718
12298.400000	2.16431
12303.800000	2.16238
