# XDI/1.0
# Column.1: energy(ev)
# Column.2: fluorescence_emission(au)
# Element.symbol: V
# Element.edge: K
# Mono.name: Si 2 2 0
# Mono.d_spacing: 1.92
# Beamline.name: FAME
# Sample.name: Frozen solution of Sodium orthovanadate Na3VO4 solution at pH 12.5 - 5000mg/l of V
# Sample.temperature: 10.0 K
# Sample.pressure: None
# Citation.doi:  https://doi.org/10.26302/SSHADE/EXPERIMENT_PC_20220301_001
# Citation.comments: Chaurand, Perrine; Couturier, Julien; Levard, Cl√©ment; De Pao Mendonca, Kassandra (2021): V K edge XAS HERFD of V reference compounds 10K. SSHADE/FAME (OSUG Data Center). Dataset/Spectral Data. https://doi.org/10.26302/SSHADE/EXPERIMENT_PC_20220301_001Schmitt, Bernard; Bollard, Philippe; Albert, Damien; Garenne, Alexandre; Bonal, Lydie; and the SSHADE partner's consortium (2018). SSHADE: 'Solid Spectroscopy Hosting Architecture of Databases and Expertise'. OSUG Data Center. Service/Database infrastructure. https://doi.org/10.26302/SSHADE
# ////
#---------
# energy(ev)	fluorescence_emission(au)
5420.050144	9.82842
5422.049999	9.69665
5424.049854	9.14915
5426.050186	9.38315
5428.050041	9.70300
5430.049896	9.48768
5432.050228	8.92623
5434.050083	8.98599
5436.049938	8.59199
5438.049793	9.10043
5440.050125	9.10725
5442.049980	8.93696
5444.049835	8.71908
5446.050167	8.16929
5448.050022	8.81407
5450.049877	8.40857
5452.050209	8.08440
5454.050064	8.25083
5456.049919	7.94591
5458.049774	8.27042
5460.060120	8.11704
5462.049961	7.52067
5462.150097	7.58775
5462.250233	7.52467
5462.349892	7.54017
5462.450027	7.62248
5462.550163	7.61044
5462.649822	7.56160
5462.749958	7.76421
5462.850094	7.82962
5462.950230	7.21038
5463.049889	7.82210
5463.150024	7.87057
5463.250160	7.55680
5463.349819	7.59935
5463.449955	7.60942
5463.550091	7.79375
5463.650227	7.72456
5463.749886	7.74150
5463.850021	7.49916
5463.950157	7.52149
5464.049816	7.46415
5464.149952	7.74491
5464.250088	7.74713
5464.350224	7.75043
5464.449883	7.51711
5464.550018	7.77356
5464.650154	7.72000
5464.749813	7.88179
5464.849949	7.75144
5464.950085	7.56229
5465.050220	8.12754
5465.149879	7.85350
5465.250015	7.53731
5465.350151	7.52395
5465.449810	7.87162
5465.549946	7.95324
5465.650082	7.70693
5465.750217	7.95853
5465.849876	7.78102
5465.950012	7.99948
5466.050148	7.64973
5466.149807	7.88310
5466.249943	7.84007
5466.350079	7.55502
5466.450214	8.00817
5466.549873	8.15223
5466.650009	8.19464
5466.750145	8.50047
5466.849804	8.37095
5466.949940	8.87527
5467.050076	8.84913
5467.150211	9.55486
5467.249870	10.41419
5467.350006	10.60392
5467.450142	12.48880
5467.549801	13.88240
5467.649937	16.33132
5467.750072	19.21354
5467.850208	23.70550
5467.949867	29.40976
5468.050003	34.58348
5468.150139	39.31966
5468.249798	44.99880
5468.349934	50.04847
5468.450069	53.74845
5468.550205	58.76226
5468.649864	65.10365
5468.750000	74.71610
5468.850136	87.82473
5468.949795	103.82696
5469.049931	125.93480
5469.150066	153.48056
5469.250202	188.66506
5469.349861	226.92905
5469.449997	271.82336
5469.550133	316.99232
5469.649792	365.83420
5469.749928	413.55352
5469.850063	441.03605
5469.950199	454.36609
5470.049858	451.88681
5470.149994	427.31283
5470.250130	387.40957
5470.349789	339.60948
5470.449924	282.27615
5470.550060	232.62138
5470.650196	185.57019
5470.749855	146.72038
5470.849991	114.82516
5470.950127	92.91513
5471.049786	76.06022
5471.149921	65.17019
5471.250057	56.81651
5471.350193	50.95761
5471.449852	45.78545
5471.549988	41.82029
5471.650124	38.39414
5471.749783	35.74186
5471.849918	34.05129
5471.950054	32.46031
5472.050190	32.60884
5472.149849	33.32446
5472.249985	33.38787
5472.350121	35.03381
5472.449780	34.80989
5472.549915	36.31657
5472.650051	36.12182
5472.750187	37.01340
5472.849846	36.59482
5472.949982	38.14019
5473.050117	39.20768
5473.149776	39.87063
5473.249912	41.23442
5473.350048	41.81461
5473.450184	42.17379
5473.549843	44.45063
5473.649979	44.72538
5473.750114	45.53557
5473.849773	46.24040
5473.949909	48.91532
5474.050045	50.56953
5474.150181	51.58571
5474.249840	53.22664
5474.349976	54.26942
5474.450111	55.80209
5474.549770	57.67457
5474.649906	59.22910
5474.750042	60.92433
5474.850178	62.89558
5474.949837	64.30359
5475.049973	66.72374
5475.150108	67.29750
5475.249767	69.37211
5475.349903	71.44008
5475.450039	73.67763
5475.550175	75.10542
5475.649834	76.79640
5475.749969	76.78905
5475.850105	78.59539
5475.949764	80.09467
5476.049900	82.08784
5476.250172	82.32936
5476.449966	85.88179
5476.650238	88.58111
5476.850033	88.69446
5477.049828	91.91706
5477.250099	92.02665
5477.449894	94.95625
5477.650166	96.22798
5477.849960	95.27556
5478.050232	95.59897
5478.250027	98.51709
5478.449821	98.62065
5478.650093	98.91629
5478.849888	98.88361
5479.050159	101.44031
5479.249954	105.74070
5479.450226	105.94677
5479.650021	110.66484
5479.849815	115.46217
5480.050087	119.37448
5480.249882	124.77974
5480.450153	132.84556
5480.649948	136.26328
5480.850220	143.43933
5481.050014	152.06536
5481.249809	159.22658
5481.450081	169.00771
5481.649876	178.11008
5481.850147	189.87002
5482.049942	200.96195
5482.250214	210.61155
5482.450008	222.20167
5482.649803	235.29507
5482.850075	250.78230
5483.049870	262.73612
5483.250141	276.91354
5483.449936	288.16647
5483.650208	304.28902
5483.850002	314.28630
5484.049797	328.56314
5484.250069	338.57105
5484.449863	347.52106
5484.650135	358.00727
5484.849930	363.93466
5485.050201	369.76994
5485.249996	375.41574
5485.449791	379.70336
5485.650063	380.73607
5485.849857	383.78683
5486.050129	384.57219
5486.249924	387.76653
5486.450195	385.85624
5486.649990	387.27211
5486.849785	385.25591
5487.050056	383.90562
5487.249851	382.39761
5487.450123	386.58947
5487.649918	387.79313
5487.850189	383.58054
5488.049984	384.81732
5488.249779	384.23651
5488.450050	384.50710
5488.649845	385.65303
5488.850117	384.45816
5489.049911	385.57966
5489.250183	384.77903
5489.449978	385.47795
5489.649773	386.10211
5489.850044	384.77817
5490.049839	386.05194
5490.250111	389.38097
5490.449905	385.35818
5490.650177	386.58856
5490.849972	392.86764
5491.049767	388.27944
5491.250038	388.04237
5491.449833	391.27064
5491.650105	390.96585
5491.849899	390.24221
5492.050171	390.08217
5492.249966	394.64394
5492.450237	394.80328
5492.650032	399.81489
5492.849827	395.81653
5493.050098	399.51080
5493.249893	403.16138
5493.450165	401.80293
5493.649960	404.46203
5493.850231	407.94010
5494.050026	410.59492
5494.249821	413.25500
5494.450092	412.52770
5494.649887	416.70964
5494.850159	418.59451
5495.049953	422.03240
5495.250225	424.26182
5495.450020	428.84524
5495.649815	426.52938
5495.850086	432.93754
5496.049881	433.83771
5496.250153	438.70302
5496.449947	442.47590
5496.650219	446.92593
5496.850014	448.22114
5497.049809	450.08053
5497.250080	452.44197
5497.449875	455.95915
5497.650146	455.62645
5497.849941	459.42869
5498.050213	460.63629
5498.250008	463.86860
5498.449802	465.85777
5498.650074	469.21642
5498.849869	472.38193
5499.050140	475.76165
5499.249935	477.90560
5499.450207	474.99596
5499.650002	477.36266
5499.849796	478.55986
5500.050068	480.63457
5500.249863	479.49532
5500.450134	480.61374
5500.649929	480.09985
5500.850201	482.59500
5501.049995	482.79513
5501.249790	483.97093
5501.450062	483.78945
5501.649857	483.47543
5501.850128	486.83197
5502.049923	484.18769
5502.250195	486.12603
5502.449989	485.81702
5502.649784	484.13284
5502.850056	484.22450
5503.049850	481.61617
5503.250122	483.27470
5503.449917	483.26448
5503.650188	483.49788
5503.849983	483.16649
5504.049778	483.16990
5504.250050	483.44076
5504.449844	481.15546
5504.650116	484.14575
5504.849911	479.47039
5505.050182	481.29391
5505.249977	481.21158
5505.449772	480.21685
5505.650043	480.40892
5505.849838	482.11912
5506.050110	484.05117
5506.249905	483.92160
5506.450176	479.87527
5506.649971	479.97181
5506.849766	481.30323
5507.050037	482.88390
5507.249832	481.38681
5507.450104	480.40366
5507.649899	483.02186
5507.850170	480.90315
5508.049965	480.60447
5508.250237	479.33516
5508.450031	483.02465
5508.649826	480.53022
5508.850098	480.43317
5509.049892	478.74181
5509.250164	480.54172
5509.449959	476.94565
5509.650230	477.23395
5509.850025	480.56297
5510.049820	477.66011
5510.250092	476.51467
5510.449886	479.86636
5510.650158	473.49969
5510.849953	476.46003
5511.050224	471.88475
5511.250019	474.16715
5511.449814	472.29557
5511.650085	471.51884
5511.849880	469.96470
5512.050152	467.86179
5512.249947	471.27216
5512.450218	466.87167
5512.650013	464.78398
5512.849808	467.47441
5513.050079	464.48239
5513.249874	464.50738
5513.450146	462.78083
5513.649940	464.33166
5513.850212	458.54961
5514.050007	459.60989
5514.249802	458.46120
5514.450073	461.23125
5514.649868	457.91548
5514.850140	457.35947
5515.049934	454.96086
5515.250206	453.95161
5515.450001	450.76381
5515.649796	452.77127
5515.850067	450.69277
5516.049862	449.67274
5516.250134	448.43271
5516.449928	447.09359
5516.650200	442.76359
5516.849995	444.06691
5517.049789	442.50759
5517.250061	443.96478
5517.449856	441.35903
5517.650127	440.12479
5517.849922	439.63580
5518.050194	441.18507
5518.249989	436.15897
5518.449783	435.28406
5518.650055	434.41916
5518.849850	437.22148
5519.050121	436.43816
5519.249916	436.96846
5519.450188	435.91572
5519.649982	433.38777
5519.849777	434.39090
5520.050049	433.66365
5520.649910	432.48129
5521.249771	425.31563
5521.850109	419.65665
5522.449970	418.56495
5523.049831	416.97126
5523.660183	415.04866
5524.250031	409.94451
5524.849892	406.10287
5525.450230	403.12943
5526.050091	401.10881
5526.649952	396.08166
5527.249813	391.24121
5527.850151	392.75812
5528.450012	389.83359
5529.049873	384.91097
5529.650211	384.85138
5530.250072	384.22548
5530.849934	381.30961
5531.449795	376.38654
5532.050133	372.06379
5532.649994	371.76321
5533.249855	370.74100
5533.850193	369.06840
5534.450054	368.42268
5535.049915	365.78578
5535.649776	363.95700
5536.250114	362.34998
5536.849976	365.41299
5537.449837	362.85095
5538.050175	361.97567
5538.650036	359.49232
5539.249897	359.91504
5539.850235	356.74678
5540.450096	360.65701
5541.049957	362.44055
5541.649818	361.16795
5542.250156	361.78317
5542.850018	362.14576
5543.449879	359.07224
5544.050217	362.19689
5544.650078	362.19811
5545.249939	365.03295
5545.849800	364.82333
5546.450138	363.61039
5547.049999	364.47476
5547.649860	368.04631
5548.250198	368.04999
5548.850060	367.27058
5549.449921	368.17755
5550.049782	368.20618
5550.650120	371.21553
5551.249981	370.40423
5551.849842	372.79983
5552.450180	376.32520
5553.050041	373.53380
5553.649902	374.55502
5554.249763	375.22898
5554.850101	374.05608
5555.449963	373.38797
5556.049824	374.03218
5556.650162	374.94171
5557.250023	378.17783
5557.849884	379.45251
5558.460236	382.53609
5559.050083	380.23449
5559.649944	383.53605
5560.249805	380.94754
5560.850143	382.27549
5561.450005	382.07709
5562.049866	385.54955
5562.650204	389.07603
5563.250065	385.41157
5563.849926	382.46406
5564.449787	385.08456
5565.050125	390.41298
5565.649986	386.19938
5566.249847	391.12875
5566.850185	388.48326
5567.450047	388.20235
5568.049908	390.60041
5568.649769	390.58259
5569.250107	389.79628
5569.859982	395.07158
5570.459843	392.11843
5571.050167	391.44956
5571.650028	390.20001
5572.249889	391.18911
5572.850227	392.97024
5573.450089	395.44376
5574.049950	394.65668
5574.649811	396.50363
5575.250149	395.19940
5575.850010	394.87410
5576.449871	393.45037
5577.060223	395.75957
5577.650070	399.32391
5578.249931	398.62090
5578.849792	402.31426
5579.460144	396.92617
5580.049992	400.30814
5580.649853	405.58428
5581.250191	402.07434
5581.850052	405.86749
5582.449913	405.24625
5583.049774	404.13511
5583.650112	407.05253
5584.249973	408.70197
5584.849834	405.05784
5585.450172	406.91264
5586.050034	407.39027
5586.649895	405.32259
5587.250233	409.05966
5587.850094	409.96805
5588.459969	407.62773
5589.049816	411.37355
5589.650154	406.19605
5590.260029	408.48629
5590.849876	410.02070
5591.450214	411.36948
5592.050076	410.98765
5592.649937	408.76723
5593.259811	407.53161
5593.860149	408.24866
5594.449997	406.76229
5595.049858	409.55692
5595.650196	408.45209
5596.250057	410.74070
5596.849918	409.57531
5597.449780	405.53668
5598.050117	408.93605
5598.649979	408.83377
5599.249840	408.55859
5599.850178	406.71655
5601.850033	401.16534
5602.109909	406.66111
5606.699944	401.19717
5609.029770	400.66436
5611.370087	391.50207
5613.719940	392.17388
5616.099834	392.70583
5618.500233	388.78043
5620.920181	389.14716
5623.350143	386.42283
5625.800133	387.70500
5628.270149	382.47917
5630.770206	384.26223
5633.279800	380.95967
5635.809898	377.56818
5638.350010	383.36114
5640.920162	378.39717
5643.509865	379.89425
5646.110058	378.65300
5648.739815	375.56255
