# XDI/1.0
# Column.1: energy(ev)
# Column.2: transmission(au)
# Element.symbol: W
# Element.edge: L3
# Mono.name: Si 2 2 0
# Mono.d_spacing: 1.92
# Beamline.name: FAME
# Sample.name: Pellet of (NH4)6H2W12O40 mixed with BN
# Sample.temperature: 10.0 +/- 1.0 K
# Sample.pressure: None
# Citation.doi:  https://doi.org/10.26302/SSHADE/EXPERIMENT_OP_20201209_001
# Citation.comments: Proux, Olivier (2020): W L3 edge XAS transmission and XAS fluorescence of W reference compounds at 10K. SSHADE/FAME (OSUG Data Center). Dataset/Spectral Data. https://doi.org/10.26302/SSHADE/EXPERIMENT_OP_20201209_001Schmitt, Bernard; Bollard, Philippe; Albert, Damien; Garenne, Alexandre; Bonal, Lydie; and the SSHADE partner's consortium (2018). SSHADE: 'Solid Spectroscopy Hosting Architecture of Databases and Expertise'. OSUG Data Center. Service/Database infrastructure. https://doi.org/10.26302/SSHADE
# ////
#---------
# energy(ev)	transmission(au)
10047.395000	0.83317
10052.295000	0.83153
10055.695000	0.82985
10058.795000	0.82888
10061.795000	0.82807
10064.795000	0.82673
10067.895000	0.82519
10070.795000	0.82477
10073.795000	0.82433
10076.895000	0.82297
10079.795000	0.82221
10082.895000	0.82118
10085.895000	0.82066
10088.995000	0.81927
10091.995000	0.81840
10095.095000	0.81768
10098.095000	0.81699
10101.095000	0.81611
10104.095000	0.81508
10107.095000	0.81462
10110.095000	0.81366
10113.095000	0.81291
10115.995000	0.81150
10119.095000	0.81063
10121.995000	0.81030
10125.095000	0.80943
10128.095000	0.80884
10131.095000	0.80788
10134.095000	0.80695
10136.995000	0.80581
10140.095000	0.80543
10143.095000	0.80425
10146.095000	0.80388
10149.095000	0.80360
10152.095000	0.80252
10155.095000	0.80218
10157.995000	0.80041
10161.095000	0.80042
10164.095000	0.80010
10167.095000	0.79910
10167.595000	0.79904
10167.695000	0.79886
10167.995000	0.79933
10168.295000	0.79918
10168.595000	0.79941
10168.895000	0.79952
10169.195000	0.79967
10169.495000	0.79911
10169.795000	0.79940
10170.095000	0.79906
10170.395000	0.79944
10170.695000	0.79921
10170.995000	0.79971
10171.295000	0.79959
10171.595000	0.79962
10171.895000	0.79957
10172.195000	0.79864
10172.495000	0.79877
10172.795000	0.79945
10173.095000	0.79919
10173.395000	0.79923
10173.695000	0.79976
10173.995000	0.79967
10174.295000	0.79962
10174.595000	0.79915
10174.895000	0.79985
10175.195000	0.79951
10175.495000	0.79938
10175.795000	0.79926
10176.095000	0.79898
10176.395000	0.79862
10176.695000	0.79902
10176.995000	0.79867
10177.295000	0.79898
10177.595000	0.79905
10177.895000	0.79949
10178.195000	0.79917
10178.495000	0.79939
10178.795000	0.79932
10179.095000	0.79974
10179.395000	0.79960
10179.695000	0.79984
10179.995000	0.79954
10180.295000	0.79922
10180.595000	0.79918
10180.895000	0.80029
10181.195000	0.80019
10181.495000	0.79987
10181.795000	0.79942
10182.095000	0.79991
10182.395000	0.79986
10182.695000	0.80044
10182.995000	0.80036
10183.295000	0.80071
10183.595000	0.80056
10183.895000	0.80070
10184.195000	0.80040
10184.495000	0.80100
10184.795000	0.80128
10185.095000	0.80133
10185.395000	0.80145
10185.695000	0.80187
10185.995000	0.80267
10186.295000	0.80258
10186.595000	0.80249
10186.895000	0.80247
10187.195000	0.80286
10187.495000	0.80308
10187.795000	0.80385
10188.095000	0.80336
10188.395000	0.80403
10188.695000	0.80414
10188.995000	0.80403
10189.295000	0.80426
10189.595000	0.80518
10189.895000	0.80512
10190.195000	0.80536
10190.495000	0.80584
10190.795000	0.80600
10191.095000	0.80662
10191.395000	0.80714
10191.695000	0.80723
10191.995000	0.80804
10192.295000	0.80804
10192.595000	0.80896
10192.895000	0.80878
10193.195000	0.81029
10193.495000	0.81040
10193.795000	0.81116
10194.095000	0.81146
10194.395000	0.81275
10194.695000	0.81326
10194.995000	0.81416
10195.295000	0.81505
10195.595000	0.81600
10195.895000	0.81617
10196.195000	0.81801
10196.495000	0.81822
10196.795000	0.81981
10197.095000	0.82084
10197.395000	0.82220
10197.695000	0.82350
10197.995000	0.82437
10198.295000	0.82619
10198.595000	0.82797
10198.895000	0.82957
10199.195000	0.83092
10199.495000	0.83298
10199.795000	0.83548
10200.095000	0.83781
10200.395000	0.84029
10200.695000	0.84271
10200.995000	0.84589
10201.295000	0.84819
10201.595000	0.85157
10201.895000	0.85469
10202.195000	0.85853
10202.495000	0.86222
10202.795000	0.86636
10203.095000	0.87049
10203.395000	0.87517
10203.695000	0.88098
10203.995000	0.88663
10204.295000	0.89405
10204.595000	0.90209
10204.895000	0.90964
10205.195000	0.91913
10205.495000	0.92839
10205.795000	0.93895
10206.095000	0.95298
10206.395000	0.96635
10206.695000	0.98097
10206.995000	0.99937
10207.295000	1.01950
10207.595000	1.03886
10207.895000	1.06298
10208.195000	1.08836
10208.495000	1.11766
10208.795000	1.15119
10209.095000	1.18675
10209.395000	1.22544
10209.695000	1.26600
10209.995000	1.30831
10210.295000	1.34958
10210.595000	1.39096
10210.895000	1.42612
10211.195000	1.45729
10211.495000	1.48536
10211.795000	1.50264
10212.095000	1.51668
10212.395000	1.52534
10212.695000	1.52953
10212.995000	1.52878
10213.295000	1.52989
10213.595000	1.52816
10213.895000	1.52641
10214.195000	1.52424
10214.495000	1.52662
10214.795000	1.52612
10215.095000	1.52099
10215.395000	1.51436
10215.695000	1.50089
10215.995000	1.48262
10216.295000	1.46346
10216.595000	1.43782
10216.895000	1.41345
10217.195000	1.38682
10217.495000	1.35835
10217.795000	1.33030
10218.095000	1.30851
10218.395000	1.28481
10218.695000	1.26436
10219.195000	1.22960
10219.395000	1.21711
10220.595000	1.15120
10221.495000	1.12088
10222.195000	1.10098
10222.995000	1.08843
10223.795000	1.08131
10224.595000	1.07712
10225.395000	1.07343
10226.195000	1.06984
10227.095000	1.06650
10227.995000	1.06105
10228.895000	1.05547
10229.795000	1.05062
10230.695000	1.04600
10231.695000	1.04269
10232.595000	1.04011
10233.695000	1.03683
10234.695000	1.03633
10235.695000	1.03539
10236.795000	1.03453
10237.795000	1.03433
10238.895000	1.03357
10239.995000	1.03213
10241.095000	1.03075
10242.195000	1.02923
10243.395000	1.02761
10244.595000	1.02667
10245.895000	1.02612
10246.995000	1.02524
10248.295000	1.02554
10249.495000	1.02639
10250.795000	1.02807
10252.095000	1.02981
10253.395000	1.03267
10254.695000	1.03662
10256.095000	1.04150
10257.495000	1.04555
10258.895000	1.05027
10260.195000	1.05490
10261.695000	1.05856
10263.095000	1.06137
10264.595000	1.06378
10265.995000	1.06492
10267.595000	1.06419
10269.095000	1.06360
10270.595000	1.06140
10272.195000	1.05987
10273.795000	1.05702
10275.295000	1.05423
10276.995000	1.05160
10278.595000	1.04909
10280.295000	1.04743
10281.895000	1.04520
10283.695000	1.04413
10285.295000	1.04335
10286.995000	1.04215
10288.795000	1.04115
10290.595000	1.03984
10292.295000	1.03869
10294.195000	1.03839
10295.995000	1.03778
10297.795000	1.03729
10299.695000	1.03660
10301.595000	1.03638
10303.395000	1.03469
10305.395000	1.03336
10307.295000	1.03224
10309.195000	1.03075
10311.295000	1.02988
10313.195000	1.02894
10315.195000	1.02777
10317.295000	1.02720
10319.295000	1.02640
10321.395000	1.02644
10323.495000	1.02622
10325.495000	1.02613
10327.695000	1.02597
10329.795000	1.02619
10331.995000	1.02648
10334.195000	1.02654
10336.395000	1.02780
10338.595000	1.02805
10340.795000	1.02799
10343.095000	1.02793
10345.395000	1.02746
10347.595000	1.02695
10349.995000	1.02761
10352.295000	1.02641
10354.695000	1.02496
10356.995000	1.02406
10359.395000	1.02278
10361.795000	1.02197
10364.195000	1.02094
10366.695000	1.02047
10369.095000	1.01934
10371.695000	1.01893
10374.095000	1.01793
10376.595000	1.01687
10379.195000	1.01355
10381.795000	1.01190
10384.295000	1.01129
10386.895000	1.01047
10389.595000	1.00946
10392.195000	1.00936
10394.895000	1.00824
10397.495000	1.00705
10400.295000	1.00598
10403.095000	1.00488
10405.495000	1.00394
10408.295000	1.00225
10411.195000	1.00154
10413.895000	1.00079
10416.795000	0.99986
10419.495000	0.99869
10422.395000	0.99800
10425.195000	0.99768
10428.195000	0.99680
10430.995000	0.99636
10433.995000	0.99602
10436.895000	0.99492
10439.795000	0.99471
10442.795000	0.99354
10445.795000	0.99285
10448.795000	0.99270
10451.795000	0.99182
10454.895000	0.99009
10457.995000	0.98862
10461.095000	0.98874
10464.095000	0.98745
10467.295000	0.98592
10470.395000	0.98505
10473.595000	0.98512
10476.695000	0.98468
10479.995000	0.98362
10483.195000	0.98306
10486.295000	0.98305
10489.695000	0.98254
10492.895000	0.98147
10496.195000	0.98103
10499.495000	0.97970
10502.895000	0.97888
10506.295000	0.97800
10509.495000	0.97668
10512.995000	0.97578
10516.395000	0.97435
10519.795000	0.97301
10523.295000	0.97250
10526.695000	0.97094
10530.195000	0.97060
10533.695000	0.96958
10537.195000	0.96893
10540.795000	0.96826
10544.295000	0.96666
10547.995000	0.96614
10551.495000	0.96559
10555.095000	0.96461
10558.795000	0.96303
10562.395000	0.96273
10565.995000	0.96159
10569.795000	0.96047
10573.495000	0.95916
10577.195000	0.95841
10580.895000	0.95805
10584.695000	0.95614
10588.495000	0.95512
10592.295000	0.95412
10596.095000	0.95316
10599.895000	0.95223
10603.795000	0.95123
10607.695000	0.94918
10611.595000	0.94828
10615.495000	0.94698
10619.395000	0.94621
10623.395000	0.94519
10627.295000	0.94479
10631.395000	0.94340
10635.295000	0.94216
10639.395000	0.94108
10643.495000	0.93900
10647.395000	0.93872
10651.595000	0.93732
10655.695000	0.93562
10659.695000	0.93536
10663.995000	0.93448
10668.095000	0.93254
10672.195000	0.93145
10676.495000	0.93149
10680.695000	0.92972
10684.895000	0.92861
10689.195000	0.92776
10693.495000	0.92673
10697.795000	0.92534
10702.095000	0.92362
10706.395000	0.92225
10710.795000	0.92154
10715.195000	0.92011
10719.495000	0.91810
10723.895000	0.91768
10728.395000	0.91654
10732.795000	0.91520
10737.295000	0.91430
10741.695000	0.91294
10746.295000	0.91158
10750.795000	0.91093
10755.295000	0.90985
10759.895000	0.90883
10764.395000	0.90677
10769.095000	0.90528
10773.695000	0.90420
10778.195000	0.90241
10782.995000	0.90080
10787.595000	0.90020
10792.295000	0.89864
10796.995000	0.89661
10801.695000	0.89582
10806.495000	0.89474
10811.295000	0.89276
10815.995000	0.89189
10820.895000	0.89145
10825.595000	0.88984
10830.495000	0.88881
10835.395000	0.88837
10840.195000	0.88739
10845.195000	0.88600
10849.995000	0.88484
10855.095000	0.88402
10859.895000	0.88275
10864.895000	0.88118
10869.995000	0.87965
10874.795000	0.87844
10880.095000	0.87665
10884.995000	0.87547
10890.095000	0.87504
10895.195000	0.87303
10900.195000	0.87207
10905.395000	0.87034
10910.495000	0.86855
10915.695000	0.86842
10920.895000	0.86717
10926.095000	0.86557
10931.395000	0.86380
10936.395000	0.86352
10941.795000	0.86247
10947.095000	0.86113
10952.395000	0.86004
10957.695000	0.85814
10962.995000	0.85752
10968.395000	0.85612
10973.595000	0.85535
10979.195000	0.85349
10984.495000	0.85266
10989.995000	0.85262
10995.395000	0.85099
11000.795000	0.85001
11006.395000	0.84918
11011.795000	0.84733
11017.395000	0.84574
11022.895000	0.84508
11028.495000	0.84347
11033.995000	0.84123
11039.595000	0.84121
11045.295000	0.83849
11050.895000	0.83738
11056.595000	0.83707
11062.095000	0.83493
11067.895000	0.83400
11073.595000	0.83357
11079.395000	0.82990
11085.095000	0.82942
11090.895000	0.82902
11096.595000	0.82810
11102.395000	0.82652
11108.295000	0.82558
11114.095000	0.82398
11119.995000	0.82050
11125.795000	0.82054
11131.795000	0.81827
11137.595000	0.81700
11143.595000	0.81601
11149.495000	0.81428
11155.495000	0.81311
11161.495000	0.81251
11167.495000	0.81067
11173.595000	0.80907
11179.595000	0.80810
11185.695000	0.80700
11191.695000	0.80478
11197.895000	0.80310
11203.895000	0.80313
11210.195000	0.80109
11216.195000	0.79894
11222.495000	0.79775
11228.595000	0.79680
11234.895000	0.79509
11241.095000	0.79421
11247.395000	0.79236
11253.595000	0.79022
11259.995000	0.78900
11266.195000	0.78806
11272.595000	0.78704
11278.895000	0.78587
11285.295000	0.78447
11291.695000	0.78249
11298.095000	0.78187
11304.495000	0.77946
11310.895000	0.77840
11317.395000	0.77591
11323.895000	0.77429
11330.395000	0.77394
11336.895000	0.77176
11343.495000	0.77117
11349.995000	0.76987
11356.695000	0.76826
11363.195000	0.76496
11369.895000	0.76443
11376.395000	0.76271
11383.195000	0.76163
11389.795000	0.75930
11396.495000	0.75847
11403.095000	0.75779
11409.995000	0.75530
11416.595000	0.75452
11423.495000	0.75224
11430.195000	0.75036
